train_set,stim_id,sums_feat,category,correct_key,gen_file,train_item,train_runs.thisRepN,train_runs.thisTrialN,train_runs.thisN,train_runs.thisIndex,train_trials.thisRepN,train_trials.thisTrialN,train_trials.thisN,train_trials.thisIndex,test_runs.thisRepN,test_runs.thisTrialN,test_runs.thisN,test_runs.thisIndex,test_trials.thisRepN,test_trials.thisTrialN,test_trials.thisN,test_trials.thisIndex,welcome_key.keys,welcome_key.rt,welcome_key.started,welcome_key.stopped,train_inst1_key.keys,train_inst1_key.rt,train_inst2_key.keys,train_inst2_key.rt,train_begin_key.keys,train_begin_key.rt,train_key.keys,train_key.corr,train_key.rt,break_key.keys,break_key.rt,key_resp.keys,key_resp.rt,test_inst1_key.keys,test_inst1_key.rt,test_inst2_key.keys,test_inst2_key.rt,test_begin_key.keys,test_begin_key.rt,test_key.keys,test_key.corr,test_key.rt,test_end_key.keys,test_end_key.rt,demo_inst1_key.keys,demo_inst1_key.rt,form.questionWidth,form.type,form.respWidth,form.itemText,form.index,form.font,form.markerColor,form.response,form.rt,form_key.keys,form_key.rt,demo_inst2_key.keys,demo_inst2_key.rt,gender_string,age_string,demo4_key.keys,demo4_key.rt,typedWord,participant,session,date,expName,psychopyVersion,frameRate,
,,,,,,,,,,,,,,,,,,,,,,,space,48.34998945798725,14.246960333082825,None,,,,,,,,,,,,,,,,,,,,,,,,,,,,,,,,,,,,,,,,,,,,,101,002,2021_Sep_17_1136,joplin1,2021.2.3,60.250930018062405,
,,,,,,,,,,,,,,,,,,,,,,,,,,,f,9.804603541037068,,,,,,,,,,,,,,,,,,,,,,,,,,,,,,,,,,,,,,,,,,,101,002,2021_Sep_17_1136,joplin1,2021.2.3,60.250930018062405,
,,,,,,,,,,,,,,,,,,,,,,,,,,,,,space,11.824398333905265,,,,,,,,,,,,,,,,,,,,,,,,,,,,,,,,,,,,,,,,,101,002,2021_Sep_17_1136,joplin1,2021.2.3,60.250930018062405,
,,,,,,,,,,,,,,,,,,,,,,,,,,,,,,,space,2.290109541034326,,,,,,,,,,,,,,,,,,,,,,,,,,,,,,,,,,,,,,,101,002,2021_Sep_17_1136,joplin1,2021.2.3,60.250930018062405,
_train_cond.csv,0 0 1 1 1 1 1 1 0 0,4,categoryB,j,,,0,0,0,5,0,0,0,13,,,,,,,,,,,,,,,,,,,f,0,0.18284091586247087,,,,,,,,,,,,,,,,,,,,,,,,,,,,,,,,,,,,101,002,2021_Sep_17_1136,joplin1,2021.2.3,60.250930018062405,
_train_cond.csv,1 1 0 0 0 0 0 0 1 1,6,categoryA,f,,,0,0,0,5,0,1,1,6,,,,,,,,,,,,,,,,,,,j,0,0.23409133404493332,,,,,,,,,,,,,,,,,,,,,,,,,,,,,,,,,,,,101,002,2021_Sep_17_1136,joplin1,2021.2.3,60.250930018062405,
_train_cond.csv,0 0 1 0 1 1 0 1 0 0,6,categoryA,f,,,0,0,0,5,0,2,2,2,,,,,,,,,,,,,,,,,,,j,0,0.30051900004036725,,,,,,,,,,,,,,,,,,,,,,,,,,,,,,,,,,,,101,002,2021_Sep_17_1136,joplin1,2021.2.3,60.250930018062405,
_train_cond.csv,0 1 0 0 0 0 0 0 1 0,8,categoryA,f,,,0,0,0,5,0,3,3,1,,,,,,,,,,,,,,,,,,,f,1,0.19346520910039544,,,,,,,,,,,,,,,,,,,,,,,,,,,,,,,,,,,,101,002,2021_Sep_17_1136,joplin1,2021.2.3,60.250930018062405,
_train_cond.csv,1 0 1 1 1 1 1 1 0 1,2,categoryB,j,,,0,0,0,5,0,4,4,8,,,,,,,,,,,,,,,,,,,f,0,0.3730132500641048,,,,,,,,,,,,,,,,,,,,,,,,,,,,,,,,,,,,101,002,2021_Sep_17_1136,joplin1,2021.2.3,60.250930018062405,
_train_cond.csv,1 1 0 1 1 1 1 0 1 1,2,categoryB,j,,,0,0,0,5,0,5,5,12,,,,,,,,,,,,,,,,,,,j,1,0.29764633416198194,,,,,,,,,,,,,,,,,,,,,,,,,,,,,,,,,,,,101,002,2021_Sep_17_1136,joplin1,2021.2.3,60.250930018062405,
_train_cond.csv,1 0 0 0 0 0 0 0 0 1,8,categoryA,f,,,0,0,0,5,0,6,6,0,,,,,,,,,,,,,,,,,,,j,0,0.358625499997288,,,,,,,,,,,,,,,,,,,,,,,,,,,,,,,,,,,,101,002,2021_Sep_17_1136,joplin1,2021.2.3,60.250930018062405,
_train_cond.csv,0 1 1 1 1 1 1 1 1 0,2,categoryB,j,,,0,0,0,5,0,7,7,7,,,,,,,,,,,,,,,,,,,f,0,0.268164083128795,,,,,,,,,,,,,,,,,,,,,,,,,,,,,,,,,,,,101,002,2021_Sep_17_1136,joplin1,2021.2.3,60.250930018062405,
_train_cond.csv,0 0 1 0 0 0 0 1 0 0,8,categoryA,f,,,0,0,0,5,0,8,8,5,,,,,,,,,,,,,,,,,,,j,0,0.38067837501876056,,,,,,,,,,,,,,,,,,,,,,,,,,,,,,,,,,,,101,002,2021_Sep_17_1136,joplin1,2021.2.3,60.250930018062405,
_train_cond.csv,0 0 0 1 1 1 1 0 0 0,6,categoryA,f,,,0,0,0,5,0,9,9,3,,,,,,,,,,,,,,,,,,,j,0,0.37552862521260977,,,,,,,,,,,,,,,,,,,,,,,,,,,,,,,,,,,,101,002,2021_Sep_17_1136,joplin1,2021.2.3,60.250930018062405,
_train_cond.csv,0 0 0 1 0 0 1 0 0 0,8,categoryA,f,,,0,0,0,5,0,10,10,4,,,,,,,,,,,,,,,,,,,f,1,0.3175460409838706,,,,,,,,,,,,,,,,,,,,,,,,,,,,,,,,,,,,101,002,2021_Sep_17_1136,joplin1,2021.2.3,60.250930018062405,
_train_cond.csv,1 1 1 0 1 1 0 1 1 1,2,categoryB,j,,,0,0,0,5,0,11,11,11,,,,,,,,,,,,,,,,,,,j,1,0.39337820815853775,,,,,,,,,,,,,,,,,,,,,,,,,,,,,,,,,,,,101,002,2021_Sep_17_1136,joplin1,2021.2.3,60.250930018062405,
_train_cond.csv,1 1 1 0 0 0 0 1 1 1,4,categoryB,j,,,0,0,0,5,0,12,12,10,,,,,,,,,,,,,,,,,,,j,1,0.44399737496860325,,,,,,,,,,,,,,,,,,,,,,,,,,,,,,,,,,,,101,002,2021_Sep_17_1136,joplin1,2021.2.3,60.250930018062405,
_train_cond.csv,1 1 0 1 0 0 1 0 1 1,4,categoryB,j,,,0,0,0,5,0,13,13,9,,,,,,,,,,,,,,,,,,,j,1,0.39977520797401667,,,,,,,,,,,,,,,,,,,,,,,,,,,,,,,,,,,,101,002,2021_Sep_17_1136,joplin1,2021.2.3,60.250930018062405,
_train_cond.csv,0 0 1 1 1 1 1 1 0 0,4,categoryB,j,,,0,0,0,5,1,0,14,13,,,,,,,,,,,,,,,,,,,f,0,0.485454750014469,,,,,,,,,,,,,,,,,,,,,,,,,,,,,,,,,,,,101,002,2021_Sep_17_1136,joplin1,2021.2.3,60.250930018062405,
_train_cond.csv,1 1 0 1 1 1 1 0 1 1,2,categoryB,j,,,0,0,0,5,1,1,15,12,,,,,,,,,,,,,,,,,,,j,1,0.3906410839408636,,,,,,,,,,,,,,,,,,,,,,,,,,,,,,,,,,,,101,002,2021_Sep_17_1136,joplin1,2021.2.3,60.250930018062405,
_train_cond.csv,0 0 1 0 1 1 0 1 0 0,6,categoryA,f,,,0,0,0,5,1,2,16,2,,,,,,,,,,,,,,,,,,,f,1,0.3476118331309408,,,,,,,,,,,,,,,,,,,,,,,,,,,,,,,,,,,,101,002,2021_Sep_17_1136,joplin1,2021.2.3,60.250930018062405,
_train_cond.csv,0 0 0 1 0 0 1 0 0 0,8,categoryA,f,,,0,0,0,5,1,3,17,4,,,,,,,,,,,,,,,,,,,f,1,0.4274353748187423,,,,,,,,,,,,,,,,,,,,,,,,,,,,,,,,,,,,101,002,2021_Sep_17_1136,joplin1,2021.2.3,60.250930018062405,
_train_cond.csv,0 0 1 0 0 0 0 1 0 0,8,categoryA,f,,,0,0,0,5,1,4,18,5,,,,,,,,,,,,,,,,,,,j,0,0.31221312494017184,,,,,,,,,,,,,,,,,,,,,,,,,,,,,,,,,,,,101,002,2021_Sep_17_1136,joplin1,2021.2.3,60.250930018062405,
_train_cond.csv,1 1 0 0 0 0 0 0 1 1,6,categoryA,f,,,0,0,0,5,1,5,19,6,,,,,,,,,,,,,,,,,,,j,0,0.28805945813655853,,,,,,,,,,,,,,,,,,,,,,,,,,,,,,,,,,,,101,002,2021_Sep_17_1136,joplin1,2021.2.3,60.250930018062405,
_train_cond.csv,0 1 0 0 0 0 0 0 1 0,8,categoryA,f,,,0,0,0,5,1,6,20,1,,,,,,,,,,,,,,,,,,,f,1,0.19451487506739795,,,,,,,,,,,,,,,,,,,,,,,,,,,,,,,,,,,,101,002,2021_Sep_17_1136,joplin1,2021.2.3,60.250930018062405,
_train_cond.csv,0 1 1 1 1 1 1 1 1 0,2,categoryB,j,,,0,0,0,5,1,7,21,7,,,,,,,,,,,,,,,,,,,f,0,0.18456433294340968,,,,,,,,,,,,,,,,,,,,,,,,,,,,,,,,,,,,101,002,2021_Sep_17_1136,joplin1,2021.2.3,60.250930018062405,
_train_cond.csv,1 1 1 0 1 1 0 1 1 1,2,categoryB,j,,,0,0,0,5,1,8,22,11,,,,,,,,,,,,,,,,,,,j,1,0.32561333384364843,,,,,,,,,,,,,,,,,,,,,,,,,,,,,,,,,,,,101,002,2021_Sep_17_1136,joplin1,2021.2.3,60.250930018062405,
_train_cond.csv,1 0 0 0 0 0 0 0 0 1,8,categoryA,f,,,0,0,0,5,1,9,23,0,,,,,,,,,,,,,,,,,,,j,0,0.6543977498076856,,,,,,,,,,,,,,,,,,,,,,,,,,,,,,,,,,,,101,002,2021_Sep_17_1136,joplin1,2021.2.3,60.250930018062405,
_train_cond.csv,1 1 0 1 0 0 1 0 1 1,4,categoryB,j,,,0,0,0,5,1,10,24,9,,,,,,,,,,,,,,,,,,,f,0,0.40210445900447667,,,,,,,,,,,,,,,,,,,,,,,,,,,,,,,,,,,,101,002,2021_Sep_17_1136,joplin1,2021.2.3,60.250930018062405,
_train_cond.csv,1 0 1 1 1 1 1 1 0 1,2,categoryB,j,,,0,0,0,5,1,11,25,8,,,,,,,,,,,,,,,,,,,j,1,0.038681792095303535,,,,,,,,,,,,,,,,,,,,,,,,,,,,,,,,,,,,101,002,2021_Sep_17_1136,joplin1,2021.2.3,60.250930018062405,
_train_cond.csv,0 0 0 1 1 1 1 0 0 0,6,categoryA,f,,,0,0,0,5,1,12,26,3,,,,,,,,,,,,,,,,,,,j,0,0.3222362499218434,,,,,,,,,,,,,,,,,,,,,,,,,,,,,,,,,,,,101,002,2021_Sep_17_1136,joplin1,2021.2.3,60.250930018062405,
_train_cond.csv,1 1 1 0 0 0 0 1 1 1,4,categoryB,j,,,0,0,0,5,1,13,27,10,,,,,,,,,,,,,,,,,,,f,0,0.3044682499021292,,,,,,,,,,,,,,,,,,,,,,,,,,,,,,,,,,,,101,002,2021_Sep_17_1136,joplin1,2021.2.3,60.250930018062405,
_train_cond.csv,1 0 1 1 1 1 1 1 0 1,2,categoryB,j,,,0,0,0,5,2,0,28,8,,,,,,,,,,,,,,,,,,,j,1,0.3299759589135647,,,,,,,,,,,,,,,,,,,,,,,,,,,,,,,,,,,,101,002,2021_Sep_17_1136,joplin1,2021.2.3,60.250930018062405,
_train_cond.csv,0 1 0 0 0 0 0 0 1 0,8,categoryA,f,,,0,0,0,5,2,1,29,1,,,,,,,,,,,,,,,,,,,f,1,0.73802320798859,,,,,,,,,,,,,,,,,,,,,,,,,,,,,,,,,,,,101,002,2021_Sep_17_1136,joplin1,2021.2.3,60.250930018062405,
_train_cond.csv,1 1 0 1 1 1 1 0 1 1,2,categoryB,j,,,0,0,0,5,2,2,30,12,,,,,,,,,,,,,,,,,,,j,1,0.3618144579231739,,,,,,,,,,,,,,,,,,,,,,,,,,,,,,,,,,,,101,002,2021_Sep_17_1136,joplin1,2021.2.3,60.250930018062405,
_train_cond.csv,1 1 0 1 0 0 1 0 1 1,4,categoryB,j,,,0,0,0,5,2,3,31,9,,,,,,,,,,,,,,,,,,,f,0,0.5845832079648972,,,,,,,,,,,,,,,,,,,,,,,,,,,,,,,,,,,,101,002,2021_Sep_17_1136,joplin1,2021.2.3,60.250930018062405,
_train_cond.csv,0 0 0 1 1 1 1 0 0 0,6,categoryA,f,,,0,0,0,5,2,4,32,3,,,,,,,,,,,,,,,,,,,j,0,0.566994542023167,,,,,,,,,,,,,,,,,,,,,,,,,,,,,,,,,,,,101,002,2021_Sep_17_1136,joplin1,2021.2.3,60.250930018062405,
_train_cond.csv,0 0 1 0 1 1 0 1 0 0,6,categoryA,f,,,0,0,0,5,2,5,33,2,,,,,,,,,,,,,,,,,,,f,1,0.32651545805856586,,,,,,,,,,,,,,,,,,,,,,,,,,,,,,,,,,,,101,002,2021_Sep_17_1136,joplin1,2021.2.3,60.250930018062405,
_train_cond.csv,1 1 1 0 1 1 0 1 1 1,2,categoryB,j,,,0,0,0,5,2,6,34,11,,,,,,,,,,,,,,,,,,,j,1,0.6860160420183092,,,,,,,,,,,,,,,,,,,,,,,,,,,,,,,,,,,,101,002,2021_Sep_17_1136,joplin1,2021.2.3,60.250930018062405,
_train_cond.csv,1 1 0 0 0 0 0 0 1 1,6,categoryA,f,,,0,0,0,5,2,7,35,6,,,,,,,,,,,,,,,,,,,j,0,1.0071597078349441,,,,,,,,,,,,,,,,,,,,,,,,,,,,,,,,,,,,101,002,2021_Sep_17_1136,joplin1,2021.2.3,60.250930018062405,
_train_cond.csv,0 0 1 1 1 1 1 1 0 0,4,categoryB,j,,,0,0,0,5,2,8,36,13,,,,,,,,,,,,,,,,,,,j,1,0.4683583329897374,,,,,,,,,,,,,,,,,,,,,,,,,,,,,,,,,,,,101,002,2021_Sep_17_1136,joplin1,2021.2.3,60.250930018062405,
_train_cond.csv,1 1 1 0 0 0 0 1 1 1,4,categoryB,j,,,0,0,0,5,2,9,37,10,,,,,,,,,,,,,,,,,,,f,0,0.45503220800310373,,,,,,,,,,,,,,,,,,,,,,,,,,,,,,,,,,,,101,002,2021_Sep_17_1136,joplin1,2021.2.3,60.250930018062405,
_train_cond.csv,1 0 0 0 0 0 0 0 0 1,8,categoryA,f,,,0,0,0,5,2,10,38,0,,,,,,,,,,,,,,,,,,,f,1,0.6748929580207914,,,,,,,,,,,,,,,,,,,,,,,,,,,,,,,,,,,,101,002,2021_Sep_17_1136,joplin1,2021.2.3,60.250930018062405,
_train_cond.csv,0 0 1 0 0 0 0 1 0 0,8,categoryA,f,,,0,0,0,5,2,11,39,5,,,,,,,,,,,,,,,,,,,j,0,0.690722333965823,,,,,,,,,,,,,,,,,,,,,,,,,,,,,,,,,,,,101,002,2021_Sep_17_1136,joplin1,2021.2.3,60.250930018062405,
_train_cond.csv,0 1 1 1 1 1 1 1 1 0,2,categoryB,j,,,0,0,0,5,2,12,40,7,,,,,,,,,,,,,,,,,,,j,1,0.3702390408143401,,,,,,,,,,,,,,,,,,,,,,,,,,,,,,,,,,,,101,002,2021_Sep_17_1136,joplin1,2021.2.3,60.250930018062405,
_train_cond.csv,0 0 0 1 0 0 1 0 0 0,8,categoryA,f,,,0,0,0,5,2,13,41,4,,,,,,,,,,,,,,,,,,,f,1,0.4650797920767218,,,,,,,,,,,,,,,,,,,,,,,,,,,,,,,,,,,,101,002,2021_Sep_17_1136,joplin1,2021.2.3,60.250930018062405,
_train_cond.csv,,,,,,,0,0,0,5,,,,,,,,,,,,,,,,,,,,,,,,,,space,3.020336041925475,,,,,,,,,,,,,,,,,,,,,,,,,,,,,,,,,,101,002,2021_Sep_17_1136,joplin1,2021.2.3,60.250930018062405,
_train_cond.csv,1 1 0 0 0 0 0 0 1 1,6,categoryA,f,,,0,1,1,4,0,0,0,6,,,,,,,,,,,,,,,,,,,j,0,0.5678984168916941,,,,,,,,,,,,,,,,,,,,,,,,,,,,,,,,,,,,101,002,2021_Sep_17_1136,joplin1,2021.2.3,60.250930018062405,
_train_cond.csv,1 0 0 0 0 0 0 0 0 1,8,categoryA,f,,,0,1,1,4,0,1,1,0,,,,,,,,,,,,,,,,,,,j,0,0.735033290926367,,,,,,,,,,,,,,,,,,,,,,,,,,,,,,,,,,,,101,002,2021_Sep_17_1136,joplin1,2021.2.3,60.250930018062405,
_train_cond.csv,1 1 0 1 0 0 1 0 1 1,4,categoryB,j,,,0,1,1,4,0,2,2,9,,,,,,,,,,,,,,,,,,,f,0,0.43086287495680153,,,,,,,,,,,,,,,,,,,,,,,,,,,,,,,,,,,,101,002,2021_Sep_17_1136,joplin1,2021.2.3,60.250930018062405,
_train_cond.csv,1 1 1 0 1 1 0 1 1 1,2,categoryB,j,,,0,1,1,4,0,3,3,11,,,,,,,,,,,,,,,,,,,j,1,0.21866979193873703,,,,,,,,,,,,,,,,,,,,,,,,,,,,,,,,,,,,101,002,2021_Sep_17_1136,joplin1,2021.2.3,60.250930018062405,
_train_cond.csv,0 1 0 0 0 0 0 0 1 0,8,categoryA,f,,,0,1,1,4,0,4,4,1,,,,,,,,,,,,,,,,,,,j,0,0.49560908414423466,,,,,,,,,,,,,,,,,,,,,,,,,,,,,,,,,,,,101,002,2021_Sep_17_1136,joplin1,2021.2.3,60.250930018062405,
_train_cond.csv,1 0 1 1 1 1 1 1 0 1,2,categoryB,j,,,0,1,1,4,0,5,5,8,,,,,,,,,,,,,,,,,,,f,0,0.664134250022471,,,,,,,,,,,,,,,,,,,,,,,,,,,,,,,,,,,,101,002,2021_Sep_17_1136,joplin1,2021.2.3,60.250930018062405,
_train_cond.csv,0 0 1 0 1 1 0 1 0 0,6,categoryA,f,,,0,1,1,4,0,6,6,2,,,,,,,,,,,,,,,,,,,f,1,0.40308770909905434,,,,,,,,,,,,,,,,,,,,,,,,,,,,,,,,,,,,101,002,2021_Sep_17_1136,joplin1,2021.2.3,60.250930018062405,
_train_cond.csv,1 1 1 0 0 0 0 1 1 1,4,categoryB,j,,,0,1,1,4,0,7,7,10,,,,,,,,,,,,,,,,,,,j,1,0.40745249995961785,,,,,,,,,,,,,,,,,,,,,,,,,,,,,,,,,,,,101,002,2021_Sep_17_1136,joplin1,2021.2.3,60.250930018062405,
_train_cond.csv,0 0 1 0 0 0 0 1 0 0,8,categoryA,f,,,0,1,1,4,0,8,8,5,,,,,,,,,,,,,,,,,,,f,1,0.28488520812243223,,,,,,,,,,,,,,,,,,,,,,,,,,,,,,,,,,,,101,002,2021_Sep_17_1136,joplin1,2021.2.3,60.250930018062405,
_train_cond.csv,1 1 0 1 1 1 1 0 1 1,2,categoryB,j,,,0,1,1,4,0,9,9,12,,,,,,,,,,,,,,,,,,,j,1,0.613609042018652,,,,,,,,,,,,,,,,,,,,,,,,,,,,,,,,,,,,101,002,2021_Sep_17_1136,joplin1,2021.2.3,60.250930018062405,
_train_cond.csv,0 0 0 1 1 1 1 0 0 0,6,categoryA,f,,,0,1,1,4,0,10,10,3,,,,,,,,,,,,,,,,,,,j,0,0.7380812091287225,,,,,,,,,,,,,,,,,,,,,,,,,,,,,,,,,,,,101,002,2021_Sep_17_1136,joplin1,2021.2.3,60.250930018062405,
_train_cond.csv,0 0 0 1 0 0 1 0 0 0,8,categoryA,f,,,0,1,1,4,0,11,11,4,,,,,,,,,,,,,,,,,,,f,1,0.34412312507629395,,,,,,,,,,,,,,,,,,,,,,,,,,,,,,,,,,,,101,002,2021_Sep_17_1136,joplin1,2021.2.3,60.250930018062405,
_train_cond.csv,0 1 1 1 1 1 1 1 1 0,2,categoryB,j,,,0,1,1,4,0,12,12,7,,,,,,,,,,,,,,,,,,,f,0,0.3834952919278294,,,,,,,,,,,,,,,,,,,,,,,,,,,,,,,,,,,,101,002,2021_Sep_17_1136,joplin1,2021.2.3,60.250930018062405,
_train_cond.csv,0 0 1 1 1 1 1 1 0 0,4,categoryB,j,,,0,1,1,4,0,13,13,13,,,,,,,,,,,,,,,,,,,j,1,0.4044629579875618,,,,,,,,,,,,,,,,,,,,,,,,,,,,,,,,,,,,101,002,2021_Sep_17_1136,joplin1,2021.2.3,60.250930018062405,
_train_cond.csv,0 0 1 0 0 0 0 1 0 0,8,categoryA,f,,,0,1,1,4,1,0,14,5,,,,,,,,,,,,,,,,,,,f,1,0.4184876249637455,,,,,,,,,,,,,,,,,,,,,,,,,,,,,,,,,,,,101,002,2021_Sep_17_1136,joplin1,2021.2.3,60.250930018062405,
_train_cond.csv,1 0 0 0 0 0 0 0 0 1,8,categoryA,f,,,0,1,1,4,1,1,15,0,,,,,,,,,,,,,,,,,,,j,0,0.40789533290080726,,,,,,,,,,,,,,,,,,,,,,,,,,,,,,,,,,,,101,002,2021_Sep_17_1136,joplin1,2021.2.3,60.250930018062405,
_train_cond.csv,0 0 0 1 1 1 1 0 0 0,6,categoryA,f,,,0,1,1,4,1,2,16,3,,,,,,,,,,,,,,,,,,,j,0,0.41364533407613635,,,,,,,,,,,,,,,,,,,,,,,,,,,,,,,,,,,,101,002,2021_Sep_17_1136,joplin1,2021.2.3,60.250930018062405,
_train_cond.csv,0 0 1 1 1 1 1 1 0 0,4,categoryB,j,,,0,1,1,4,1,3,17,13,,,,,,,,,,,,,,,,,,,f,0,0.5382107920013368,,,,,,,,,,,,,,,,,,,,,,,,,,,,,,,,,,,,101,002,2021_Sep_17_1136,joplin1,2021.2.3,60.250930018062405,
_train_cond.csv,0 1 0 0 0 0 0 0 1 0,8,categoryA,f,,,0,1,1,4,1,4,18,1,,,,,,,,,,,,,,,,,,,j,0,0.4433831658679992,,,,,,,,,,,,,,,,,,,,,,,,,,,,,,,,,,,,101,002,2021_Sep_17_1136,joplin1,2021.2.3,60.250930018062405,
_train_cond.csv,0 0 1 0 1 1 0 1 0 0,6,categoryA,f,,,0,1,1,4,1,5,19,2,,,,,,,,,,,,,,,,,,,f,1,0.3580839999485761,,,,,,,,,,,,,,,,,,,,,,,,,,,,,,,,,,,,101,002,2021_Sep_17_1136,joplin1,2021.2.3,60.250930018062405,
_train_cond.csv,1 1 1 0 0 0 0 1 1 1,4,categoryB,j,,,0,1,1,4,1,6,20,10,,,,,,,,,,,,,,,,,,,j,1,0.4536282499320805,,,,,,,,,,,,,,,,,,,,,,,,,,,,,,,,,,,,101,002,2021_Sep_17_1136,joplin1,2021.2.3,60.250930018062405,
_train_cond.csv,0 1 1 1 1 1 1 1 1 0,2,categoryB,j,,,0,1,1,4,1,7,21,7,,,,,,,,,,,,,,,,,,,f,0,0.9279580421280116,,,,,,,,,,,,,,,,,,,,,,,,,,,,,,,,,,,,101,002,2021_Sep_17_1136,joplin1,2021.2.3,60.250930018062405,
_train_cond.csv,1 0 1 1 1 1 1 1 0 1,2,categoryB,j,,,0,1,1,4,1,8,22,8,,,,,,,,,,,,,,,,,,,j,1,0.6482038339599967,,,,,,,,,,,,,,,,,,,,,,,,,,,,,,,,,,,,101,002,2021_Sep_17_1136,joplin1,2021.2.3,60.250930018062405,
_train_cond.csv,1 1 0 1 0 0 1 0 1 1,4,categoryB,j,,,0,1,1,4,1,9,23,9,,,,,,,,,,,,,,,,,,,j,1,0.5137071670033038,,,,,,,,,,,,,,,,,,,,,,,,,,,,,,,,,,,,101,002,2021_Sep_17_1136,joplin1,2021.2.3,60.250930018062405,
_train_cond.csv,1 1 0 0 0 0 0 0 1 1,6,categoryA,f,,,0,1,1,4,1,10,24,6,,,,,,,,,,,,,,,,,,,f,1,0.8428041250444949,,,,,,,,,,,,,,,,,,,,,,,,,,,,,,,,,,,,101,002,2021_Sep_17_1136,joplin1,2021.2.3,60.250930018062405,
_train_cond.csv,0 0 0 1 0 0 1 0 0 0,8,categoryA,f,,,0,1,1,4,1,11,25,4,,,,,,,,,,,,,,,,,,,j,0,0.3176437499932945,,,,,,,,,,,,,,,,,,,,,,,,,,,,,,,,,,,,101,002,2021_Sep_17_1136,joplin1,2021.2.3,60.250930018062405,
_train_cond.csv,1 1 1 0 1 1 0 1 1 1,2,categoryB,j,,,0,1,1,4,1,12,26,11,,,,,,,,,,,,,,,,,,,j,1,0.19045195798389614,,,,,,,,,,,,,,,,,,,,,,,,,,,,,,,,,,,,101,002,2021_Sep_17_1136,joplin1,2021.2.3,60.250930018062405,
_train_cond.csv,1 1 0 1 1 1 1 0 1 1,2,categoryB,j,,,0,1,1,4,1,13,27,12,,,,,,,,,,,,,,,,,,,f,0,0.3167551669757813,,,,,,,,,,,,,,,,,,,,,,,,,,,,,,,,,,,,101,002,2021_Sep_17_1136,joplin1,2021.2.3,60.250930018062405,
_train_cond.csv,0 1 0 0 0 0 0 0 1 0,8,categoryA,f,,,0,1,1,4,2,0,28,1,,,,,,,,,,,,,,,,,,,j,0,0.32335337484255433,,,,,,,,,,,,,,,,,,,,,,,,,,,,,,,,,,,,101,002,2021_Sep_17_1136,joplin1,2021.2.3,60.250930018062405,
_train_cond.csv,0 0 0 1 0 0 1 0 0 0,8,categoryA,f,,,0,1,1,4,2,1,29,4,,,,,,,,,,,,,,,,,,,f,1,0.25232725008390844,,,,,,,,,,,,,,,,,,,,,,,,,,,,,,,,,,,,101,002,2021_Sep_17_1136,joplin1,2021.2.3,60.250930018062405,
_train_cond.csv,0 0 1 1 1 1 1 1 0 0,4,categoryB,j,,,0,1,1,4,2,2,30,13,,,,,,,,,,,,,,,,,,,f,0,0.4561626659706235,,,,,,,,,,,,,,,,,,,,,,,,,,,,,,,,,,,,101,002,2021_Sep_17_1136,joplin1,2021.2.3,60.250930018062405,
_train_cond.csv,0 0 1 0 1 1 0 1 0 0,6,categoryA,f,,,0,1,1,4,2,3,31,2,,,,,,,,,,,,,,,,,,,j,0,0.6117556658573449,,,,,,,,,,,,,,,,,,,,,,,,,,,,,,,,,,,,101,002,2021_Sep_17_1136,joplin1,2021.2.3,60.250930018062405,
_train_cond.csv,1 1 0 1 1 1 1 0 1 1,2,categoryB,j,,,0,1,1,4,2,4,32,12,,,,,,,,,,,,,,,,,,,f,0,0.4176782499998808,,,,,,,,,,,,,,,,,,,,,,,,,,,,,,,,,,,,101,002,2021_Sep_17_1136,joplin1,2021.2.3,60.250930018062405,
_train_cond.csv,1 1 1 0 0 0 0 1 1 1,4,categoryB,j,,,0,1,1,4,2,5,33,10,,,,,,,,,,,,,,,,,,,j,1,0.6468702082056552,,,,,,,,,,,,,,,,,,,,,,,,,,,,,,,,,,,,101,002,2021_Sep_17_1136,joplin1,2021.2.3,60.250930018062405,
_train_cond.csv,1 1 0 0 0 0 0 0 1 1,6,categoryA,f,,,0,1,1,4,2,6,34,6,,,,,,,,,,,,,,,,,,,f,1,0.49048745818436146,,,,,,,,,,,,,,,,,,,,,,,,,,,,,,,,,,,,101,002,2021_Sep_17_1136,joplin1,2021.2.3,60.250930018062405,
_train_cond.csv,0 0 0 1 1 1 1 0 0 0,6,categoryA,f,,,0,1,1,4,2,7,35,3,,,,,,,,,,,,,,,,,,,f,1,0.7634965830948204,,,,,,,,,,,,,,,,,,,,,,,,,,,,,,,,,,,,101,002,2021_Sep_17_1136,joplin1,2021.2.3,60.250930018062405,
_train_cond.csv,0 0 1 0 0 0 0 1 0 0,8,categoryA,f,,,0,1,1,4,2,8,36,5,,,,,,,,,,,,,,,,,,,f,1,0.5155824171379209,,,,,,,,,,,,,,,,,,,,,,,,,,,,,,,,,,,,101,002,2021_Sep_17_1136,joplin1,2021.2.3,60.250930018062405,
_train_cond.csv,1 0 1 1 1 1 1 1 0 1,2,categoryB,j,,,0,1,1,4,2,9,37,8,,,,,,,,,,,,,,,,,,,f,0,0.3322375831194222,,,,,,,,,,,,,,,,,,,,,,,,,,,,,,,,,,,,101,002,2021_Sep_17_1136,joplin1,2021.2.3,60.250930018062405,
_train_cond.csv,1 0 0 0 0 0 0 0 0 1,8,categoryA,f,,,0,1,1,4,2,10,38,0,,,,,,,,,,,,,,,,,,,j,0,0.3408442079089582,,,,,,,,,,,,,,,,,,,,,,,,,,,,,,,,,,,,101,002,2021_Sep_17_1136,joplin1,2021.2.3,60.250930018062405,
_train_cond.csv,1 1 0 1 0 0 1 0 1 1,4,categoryB,j,,,0,1,1,4,2,11,39,9,,,,,,,,,,,,,,,,,,,f,0,0.09170970809645951,,,,,,,,,,,,,,,,,,,,,,,,,,,,,,,,,,,,101,002,2021_Sep_17_1136,joplin1,2021.2.3,60.250930018062405,
_train_cond.csv,0 1 1 1 1 1 1 1 1 0,2,categoryB,j,,,0,1,1,4,2,12,40,7,,,,,,,,,,,,,,,,,,,j,1,0.38941716705448925,,,,,,,,,,,,,,,,,,,,,,,,,,,,,,,,,,,,101,002,2021_Sep_17_1136,joplin1,2021.2.3,60.250930018062405,
_train_cond.csv,1 1 1 0 1 1 0 1 1 1,2,categoryB,j,,,0,1,1,4,2,13,41,11,,,,,,,,,,,,,,,,,,,f,0,0.33137904200702906,,,,,,,,,,,,,,,,,,,,,,,,,,,,,,,,,,,,101,002,2021_Sep_17_1136,joplin1,2021.2.3,60.250930018062405,
_train_cond.csv,,,,,,,0,1,1,4,,,,,,,,,,,,,,,,,,,,,,,,,,space,22.804126292001456,,,,,,,,,,,,,,,,,,,,,,,,,,,,,,,,,,101,002,2021_Sep_17_1136,joplin1,2021.2.3,60.250930018062405,
_train_cond.csv,0 1 1 1 1 1 1 1 1 0,2,categoryB,j,,,0,2,2,0,0,0,0,7,,,,,,,,,,,,,,,,,,,j,1,0.25652600009925663,,,,,,,,,,,,,,,,,,,,,,,,,,,,,,,,,,,,101,002,2021_Sep_17_1136,joplin1,2021.2.3,60.250930018062405,
_train_cond.csv,0 0 1 0 1 1 0 1 0 0,6,categoryA,f,,,0,2,2,0,0,1,1,2,,,,,,,,,,,,,,,,,,,j,0,0.1386960840318352,,,,,,,,,,,,,,,,,,,,,,,,,,,,,,,,,,,,101,002,2021_Sep_17_1136,joplin1,2021.2.3,60.250930018062405,
_train_cond.csv,1 1 0 0 0 0 0 0 1 1,6,categoryA,f,,,0,2,2,0,0,2,2,6,,,,,,,,,,,,,,,,,,,f,1,0.4987794170156121,,,,,,,,,,,,,,,,,,,,,,,,,,,,,,,,,,,,101,002,2021_Sep_17_1136,joplin1,2021.2.3,60.250930018062405,
_train_cond.csv,1 1 0 1 1 1 1 0 1 1,2,categoryB,j,,,0,2,2,0,0,3,3,12,,,,,,,,,,,,,,,,,,,j,1,0.5168169578537345,,,,,,,,,,,,,,,,,,,,,,,,,,,,,,,,,,,,101,002,2021_Sep_17_1136,joplin1,2021.2.3,60.250930018062405,
_train_cond.csv,0 1 0 0 0 0 0 0 1 0,8,categoryA,f,,,0,2,2,0,0,4,4,1,,,,,,,,,,,,,,,,,,,f,1,0.6432499170769006,,,,,,,,,,,,,,,,,,,,,,,,,,,,,,,,,,,,101,002,2021_Sep_17_1136,joplin1,2021.2.3,60.250930018062405,
_train_cond.csv,0 0 0 1 1 1 1 0 0 0,6,categoryA,f,,,0,2,2,0,0,5,5,3,,,,,,,,,,,,,,,,,,,f,1,0.24006987502798438,,,,,,,,,,,,,,,,,,,,,,,,,,,,,,,,,,,,101,002,2021_Sep_17_1136,joplin1,2021.2.3,60.250930018062405,
_train_cond.csv,1 1 1 0 1 1 0 1 1 1,2,categoryB,j,,,0,2,2,0,0,6,6,11,,,,,,,,,,,,,,,,,,,j,1,0.6668359998147935,,,,,,,,,,,,,,,,,,,,,,,,,,,,,,,,,,,,101,002,2021_Sep_17_1136,joplin1,2021.2.3,60.250930018062405,
_train_cond.csv,0 0 1 0 0 0 0 1 0 0,8,categoryA,f,,,0,2,2,0,0,7,7,5,,,,,,,,,,,,,,,,,,,f,1,0.5911937919445336,,,,,,,,,,,,,,,,,,,,,,,,,,,,,,,,,,,,101,002,2021_Sep_17_1136,joplin1,2021.2.3,60.250930018062405,
_train_cond.csv,1 0 1 1 1 1 1 1 0 1,2,categoryB,j,,,0,2,2,0,0,8,8,8,,,,,,,,,,,,,,,,,,,f,0,0.4575528330169618,,,,,,,,,,,,,,,,,,,,,,,,,,,,,,,,,,,,101,002,2021_Sep_17_1136,joplin1,2021.2.3,60.250930018062405,
_train_cond.csv,0 0 1 1 1 1 1 1 0 0,4,categoryB,j,,,0,2,2,0,0,9,9,13,,,,,,,,,,,,,,,,,,,f,0,0.5082708750851452,,,,,,,,,,,,,,,,,,,,,,,,,,,,,,,,,,,,101,002,2021_Sep_17_1136,joplin1,2021.2.3,60.250930018062405,
_train_cond.csv,0 0 0 1 0 0 1 0 0 0,8,categoryA,f,,,0,2,2,0,0,10,10,4,,,,,,,,,,,,,,,,,,,f,1,0.7337311659939587,,,,,,,,,,,,,,,,,,,,,,,,,,,,,,,,,,,,101,002,2021_Sep_17_1136,joplin1,2021.2.3,60.250930018062405,
_train_cond.csv,1 1 0 1 0 0 1 0 1 1,4,categoryB,j,,,0,2,2,0,0,11,11,9,,,,,,,,,,,,,,,,,,,j,1,0.3980312910862267,,,,,,,,,,,,,,,,,,,,,,,,,,,,,,,,,,,,101,002,2021_Sep_17_1136,joplin1,2021.2.3,60.250930018062405,
_train_cond.csv,1 1 1 0 0 0 0 1 1 1,4,categoryB,j,,,0,2,2,0,0,12,12,10,,,,,,,,,,,,,,,,,,,f,0,0.3075576249975711,,,,,,,,,,,,,,,,,,,,,,,,,,,,,,,,,,,,101,002,2021_Sep_17_1136,joplin1,2021.2.3,60.250930018062405,
_train_cond.csv,1 0 0 0 0 0 0 0 0 1,8,categoryA,f,,,0,2,2,0,0,13,13,0,,,,,,,,,,,,,,,,,,,j,0,0.3881066250614822,,,,,,,,,,,,,,,,,,,,,,,,,,,,,,,,,,,,101,002,2021_Sep_17_1136,joplin1,2021.2.3,60.250930018062405,
_train_cond.csv,0 1 0 0 0 0 0 0 1 0,8,categoryA,f,,,0,2,2,0,1,0,14,1,,,,,,,,,,,,,,,,,,,f,1,0.37729687499813735,,,,,,,,,,,,,,,,,,,,,,,,,,,,,,,,,,,,101,002,2021_Sep_17_1136,joplin1,2021.2.3,60.250930018062405,
_train_cond.csv,0 0 0 1 0 0 1 0 0 0,8,categoryA,f,,,0,2,2,0,1,1,15,4,,,,,,,,,,,,,,,,,,,f,1,0.36861070804297924,,,,,,,,,,,,,,,,,,,,,,,,,,,,,,,,,,,,101,002,2021_Sep_17_1136,joplin1,2021.2.3,60.250930018062405,
_train_cond.csv,1 1 0 1 0 0 1 0 1 1,4,categoryB,j,,,0,2,2,0,1,2,16,9,,,,,,,,,,,,,,,,,,,f,0,0.5207110410556197,,,,,,,,,,,,,,,,,,,,,,,,,,,,,,,,,,,,101,002,2021_Sep_17_1136,joplin1,2021.2.3,60.250930018062405,
_train_cond.csv,1 0 1 1 1 1 1 1 0 1,2,categoryB,j,,,0,2,2,0,1,3,17,8,,,,,,,,,,,,,,,,,,,j,1,0.41617241711355746,,,,,,,,,,,,,,,,,,,,,,,,,,,,,,,,,,,,101,002,2021_Sep_17_1136,joplin1,2021.2.3,60.250930018062405,
_train_cond.csv,0 0 1 0 1 1 0 1 0 0,6,categoryA,f,,,0,2,2,0,1,4,18,2,,,,,,,,,,,,,,,,,,,f,1,0.4607846250291914,,,,,,,,,,,,,,,,,,,,,,,,,,,,,,,,,,,,101,002,2021_Sep_17_1136,joplin1,2021.2.3,60.250930018062405,
_train_cond.csv,0 0 1 0 0 0 0 1 0 0,8,categoryA,f,,,0,2,2,0,1,5,19,5,,,,,,,,,,,,,,,,,,,f,1,0.342612958047539,,,,,,,,,,,,,,,,,,,,,,,,,,,,,,,,,,,,101,002,2021_Sep_17_1136,joplin1,2021.2.3,60.250930018062405,
_train_cond.csv,1 1 0 1 1 1 1 0 1 1,2,categoryB,j,,,0,2,2,0,1,6,20,12,,,,,,,,,,,,,,,,,,,j,1,0.49544733320362866,,,,,,,,,,,,,,,,,,,,,,,,,,,,,,,,,,,,101,002,2021_Sep_17_1136,joplin1,2021.2.3,60.250930018062405,
_train_cond.csv,0 1 1 1 1 1 1 1 1 0,2,categoryB,j,,,0,2,2,0,1,7,21,7,,,,,,,,,,,,,,,,,,,f,0,0.21647975011728704,,,,,,,,,,,,,,,,,,,,,,,,,,,,,,,,,,,,101,002,2021_Sep_17_1136,joplin1,2021.2.3,60.250930018062405,
_train_cond.csv,0 0 1 1 1 1 1 1 0 0,4,categoryB,j,,,0,2,2,0,1,8,22,13,,,,,,,,,,,,,,,,,,,j,1,0.30966554093174636,,,,,,,,,,,,,,,,,,,,,,,,,,,,,,,,,,,,101,002,2021_Sep_17_1136,joplin1,2021.2.3,60.250930018062405,
_train_cond.csv,0 0 0 1 1 1 1 0 0 0,6,categoryA,f,,,0,2,2,0,1,9,23,3,,,,,,,,,,,,,,,,,,,f,1,0.2385177919641137,,,,,,,,,,,,,,,,,,,,,,,,,,,,,,,,,,,,101,002,2021_Sep_17_1136,joplin1,2021.2.3,60.250930018062405,
_train_cond.csv,1 1 1 0 0 0 0 1 1 1,4,categoryB,j,,,0,2,2,0,1,10,24,10,,,,,,,,,,,,,,,,,,,j,1,0.5703588749747723,,,,,,,,,,,,,,,,,,,,,,,,,,,,,,,,,,,,101,002,2021_Sep_17_1136,joplin1,2021.2.3,60.250930018062405,
_train_cond.csv,1 1 1 0 1 1 0 1 1 1,2,categoryB,j,,,0,2,2,0,1,11,25,11,,,,,,,,,,,,,,,,,,,f,0,0.24068187503144145,,,,,,,,,,,,,,,,,,,,,,,,,,,,,,,,,,,,101,002,2021_Sep_17_1136,joplin1,2021.2.3,60.250930018062405,
_train_cond.csv,1 0 0 0 0 0 0 0 0 1,8,categoryA,f,,,0,2,2,0,1,12,26,0,,,,,,,,,,,,,,,,,,,f,1,0.019916124874725938,,,,,,,,,,,,,,,,,,,,,,,,,,,,,,,,,,,,101,002,2021_Sep_17_1136,joplin1,2021.2.3,60.250930018062405,
_train_cond.csv,1 1 0 0 0 0 0 0 1 1,6,categoryA,f,,,0,2,2,0,1,13,27,6,,,,,,,,,,,,,,,,,,,f,1,0.2962890830822289,,,,,,,,,,,,,,,,,,,,,,,,,,,,,,,,,,,,101,002,2021_Sep_17_1136,joplin1,2021.2.3,60.250930018062405,
_train_cond.csv,0 0 1 0 0 0 0 1 0 0,8,categoryA,f,,,0,2,2,0,2,0,28,5,,,,,,,,,,,,,,,,,,,f,1,0.3294392500538379,,,,,,,,,,,,,,,,,,,,,,,,,,,,,,,,,,,,101,002,2021_Sep_17_1136,joplin1,2021.2.3,60.250930018062405,
_train_cond.csv,1 0 1 1 1 1 1 1 0 1,2,categoryB,j,,,0,2,2,0,2,1,29,8,,,,,,,,,,,,,,,,,,,j,1,0.3945069999899715,,,,,,,,,,,,,,,,,,,,,,,,,,,,,,,,,,,,101,002,2021_Sep_17_1136,joplin1,2021.2.3,60.250930018062405,
_train_cond.csv,0 0 1 0 1 1 0 1 0 0,6,categoryA,f,,,0,2,2,0,2,2,30,2,,,,,,,,,,,,,,,,,,,f,1,0.5520716251339763,,,,,,,,,,,,,,,,,,,,,,,,,,,,,,,,,,,,101,002,2021_Sep_17_1136,joplin1,2021.2.3,60.250930018062405,
_train_cond.csv,0 1 1 1 1 1 1 1 1 0,2,categoryB,j,,,0,2,2,0,2,3,31,7,,,,,,,,,,,,,,,,,,,j,1,0.18372987490147352,,,,,,,,,,,,,,,,,,,,,,,,,,,,,,,,,,,,101,002,2021_Sep_17_1136,joplin1,2021.2.3,60.250930018062405,
_train_cond.csv,0 1 0 0 0 0 0 0 1 0,8,categoryA,f,,,0,2,2,0,2,4,32,1,,,,,,,,,,,,,,,,,,,f,1,0.03880274994298816,,,,,,,,,,,,,,,,,,,,,,,,,,,,,,,,,,,,101,002,2021_Sep_17_1136,joplin1,2021.2.3,60.250930018062405,
_train_cond.csv,1 1 0 0 0 0 0 0 1 1,6,categoryA,f,,,0,2,2,0,2,5,33,6,,,,,,,,,,,,,,,,,,,j,0,0.07501325011253357,,,,,,,,,,,,,,,,,,,,,,,,,,,,,,,,,,,,101,002,2021_Sep_17_1136,joplin1,2021.2.3,60.250930018062405,
_train_cond.csv,1 1 1 0 1 1 0 1 1 1,2,categoryB,j,,,0,2,2,0,2,6,34,11,,,,,,,,,,,,,,,,,,,f,0,0.5323772919364274,,,,,,,,,,,,,,,,,,,,,,,,,,,,,,,,,,,,101,002,2021_Sep_17_1136,joplin1,2021.2.3,60.250930018062405,
_train_cond.csv,0 0 1 1 1 1 1 1 0 0,4,categoryB,j,,,0,2,2,0,2,7,35,13,,,,,,,,,,,,,,,,,,,f,0,0.4938388750888407,,,,,,,,,,,,,,,,,,,,,,,,,,,,,,,,,,,,101,002,2021_Sep_17_1136,joplin1,2021.2.3,60.250930018062405,
_train_cond.csv,0 0 0 1 1 1 1 0 0 0,6,categoryA,f,,,0,2,2,0,2,8,36,3,,,,,,,,,,,,,,,,,,,f,1,0.43145912513136864,,,,,,,,,,,,,,,,,,,,,,,,,,,,,,,,,,,,101,002,2021_Sep_17_1136,joplin1,2021.2.3,60.250930018062405,
_train_cond.csv,1 1 0 1 0 0 1 0 1 1,4,categoryB,j,,,0,2,2,0,2,9,37,9,,,,,,,,,,,,,,,,,,,j,1,0.38066895795054734,,,,,,,,,,,,,,,,,,,,,,,,,,,,,,,,,,,,101,002,2021_Sep_17_1136,joplin1,2021.2.3,60.250930018062405,
_train_cond.csv,1 1 0 1 1 1 1 0 1 1,2,categoryB,j,,,0,2,2,0,2,10,38,12,,,,,,,,,,,,,,,,,,,f,0,0.2589313748758286,,,,,,,,,,,,,,,,,,,,,,,,,,,,,,,,,,,,101,002,2021_Sep_17_1136,joplin1,2021.2.3,60.250930018062405,
_train_cond.csv,1 0 0 0 0 0 0 0 0 1,8,categoryA,f,,,0,2,2,0,2,11,39,0,,,,,,,,,,,,,,,,,,,j,0,0.33289849990978837,,,,,,,,,,,,,,,,,,,,,,,,,,,,,,,,,,,,101,002,2021_Sep_17_1136,joplin1,2021.2.3,60.250930018062405,
_train_cond.csv,1 1 1 0 0 0 0 1 1 1,4,categoryB,j,,,0,2,2,0,2,12,40,10,,,,,,,,,,,,,,,,,,,f,0,0.3333054999820888,,,,,,,,,,,,,,,,,,,,,,,,,,,,,,,,,,,,101,002,2021_Sep_17_1136,joplin1,2021.2.3,60.250930018062405,
_train_cond.csv,0 0 0 1 0 0 1 0 0 0,8,categoryA,f,,,0,2,2,0,2,13,41,4,,,,,,,,,,,,,,,,,,,f,1,0.41416962491348386,,,,,,,,,,,,,,,,,,,,,,,,,,,,,,,,,,,,101,002,2021_Sep_17_1136,joplin1,2021.2.3,60.250930018062405,
_train_cond.csv,,,,,,,0,2,2,0,,,,,,,,,,,,,,,,,,,,,,,,,,space,0.8831085830461234,,,,,,,,,,,,,,,,,,,,,,,,,,,,,,,,,,101,002,2021_Sep_17_1136,joplin1,2021.2.3,60.250930018062405,
_train_cond.csv,0 0 1 0 0 0 0 1 0 0,8,categoryA,f,,,0,3,3,7,0,0,0,5,,,,,,,,,,,,,,,,,,,f,1,0.37020891695283353,,,,,,,,,,,,,,,,,,,,,,,,,,,,,,,,,,,,101,002,2021_Sep_17_1136,joplin1,2021.2.3,60.250930018062405,
_train_cond.csv,0 1 0 0 0 0 0 0 1 0,8,categoryA,f,,,0,3,3,7,0,1,1,1,,,,,,,,,,,,,,,,,,,f,1,0.30478754197247326,,,,,,,,,,,,,,,,,,,,,,,,,,,,,,,,,,,,101,002,2021_Sep_17_1136,joplin1,2021.2.3,60.250930018062405,
_train_cond.csv,0 0 0 1 1 1 1 0 0 0,6,categoryA,f,,,0,3,3,7,0,2,2,3,,,,,,,,,,,,,,,,,,,f,1,0.20333316689357162,,,,,,,,,,,,,,,,,,,,,,,,,,,,,,,,,,,,101,002,2021_Sep_17_1136,joplin1,2021.2.3,60.250930018062405,
_train_cond.csv,0 0 1 0 1 1 0 1 0 0,6,categoryA,f,,,0,3,3,7,0,3,3,2,,,,,,,,,,,,,,,,,,,j,0,0.6249999580904841,,,,,,,,,,,,,,,,,,,,,,,,,,,,,,,,,,,,101,002,2021_Sep_17_1136,joplin1,2021.2.3,60.250930018062405,
_train_cond.csv,0 0 0 1 0 0 1 0 0 0,8,categoryA,f,,,0,3,3,7,0,4,4,4,,,,,,,,,,,,,,,,,,,f,1,0.332888666074723,,,,,,,,,,,,,,,,,,,,,,,,,,,,,,,,,,,,101,002,2021_Sep_17_1136,joplin1,2021.2.3,60.250930018062405,
_train_cond.csv,1 1 0 0 0 0 0 0 1 1,6,categoryA,f,,,0,3,3,7,0,5,5,6,,,,,,,,,,,,,,,,,,,j,0,0.6385422090534121,,,,,,,,,,,,,,,,,,,,,,,,,,,,,,,,,,,,101,002,2021_Sep_17_1136,joplin1,2021.2.3,60.250930018062405,
_train_cond.csv,1 1 1 0 1 1 0 1 1 1,2,categoryB,j,,,0,3,3,7,0,6,6,11,,,,,,,,,,,,,,,,,,,j,1,0.2733580828644335,,,,,,,,,,,,,,,,,,,,,,,,,,,,,,,,,,,,101,002,2021_Sep_17_1136,joplin1,2021.2.3,60.250930018062405,
_train_cond.csv,1 1 1 0 0 0 0 1 1 1,4,categoryB,j,,,0,3,3,7,0,7,7,10,,,,,,,,,,,,,,,,,,,j,1,0.38019391708076,,,,,,,,,,,,,,,,,,,,,,,,,,,,,,,,,,,,101,002,2021_Sep_17_1136,joplin1,2021.2.3,60.250930018062405,
_train_cond.csv,1 0 1 1 1 1 1 1 0 1,2,categoryB,j,,,0,3,3,7,0,8,8,8,,,,,,,,,,,,,,,,,,,f,0,0.331506917020306,,,,,,,,,,,,,,,,,,,,,,,,,,,,,,,,,,,,101,002,2021_Sep_17_1136,joplin1,2021.2.3,60.250930018062405,
_train_cond.csv,0 0 1 1 1 1 1 1 0 0,4,categoryB,j,,,0,3,3,7,0,9,9,13,,,,,,,,,,,,,,,,,,,f,0,0.12457983405329287,,,,,,,,,,,,,,,,,,,,,,,,,,,,,,,,,,,,101,002,2021_Sep_17_1136,joplin1,2021.2.3,60.250930018062405,
_train_cond.csv,0 1 1 1 1 1 1 1 1 0,2,categoryB,j,,,0,3,3,7,0,10,10,7,,,,,,,,,,,,,,,,,,,j,1,0.8767925829160959,,,,,,,,,,,,,,,,,,,,,,,,,,,,,,,,,,,,101,002,2021_Sep_17_1136,joplin1,2021.2.3,60.250930018062405,
_train_cond.csv,1 1 0 1 1 1 1 0 1 1,2,categoryB,j,,,0,3,3,7,0,11,11,12,,,,,,,,,,,,,,,,,,,f,0,0.4372215000912547,,,,,,,,,,,,,,,,,,,,,,,,,,,,,,,,,,,,101,002,2021_Sep_17_1136,joplin1,2021.2.3,60.250930018062405,
_train_cond.csv,1 0 0 0 0 0 0 0 0 1,8,categoryA,f,,,0,3,3,7,0,12,12,0,,,,,,,,,,,,,,,,,,,f,1,0.5048872500192374,,,,,,,,,,,,,,,,,,,,,,,,,,,,,,,,,,,,101,002,2021_Sep_17_1136,joplin1,2021.2.3,60.250930018062405,
_train_cond.csv,1 1 0 1 0 0 1 0 1 1,4,categoryB,j,,,0,3,3,7,0,13,13,9,,,,,,,,,,,,,,,,,,,f,0,0.5142081659287214,,,,,,,,,,,,,,,,,,,,,,,,,,,,,,,,,,,,101,002,2021_Sep_17_1136,joplin1,2021.2.3,60.250930018062405,
_train_cond.csv,1 1 0 1 1 1 1 0 1 1,2,categoryB,j,,,0,3,3,7,1,0,14,12,,,,,,,,,,,,,,,,,,,j,1,0.31088574999012053,,,,,,,,,,,,,,,,,,,,,,,,,,,,,,,,,,,,101,002,2021_Sep_17_1136,joplin1,2021.2.3,60.250930018062405,
_train_cond.csv,1 0 1 1 1 1 1 1 0 1,2,categoryB,j,,,0,3,3,7,1,1,15,8,,,,,,,,,,,,,,,,,,,f,0,0.32022312516346574,,,,,,,,,,,,,,,,,,,,,,,,,,,,,,,,,,,,101,002,2021_Sep_17_1136,joplin1,2021.2.3,60.250930018062405,
_train_cond.csv,1 1 0 0 0 0 0 0 1 1,6,categoryA,f,,,0,3,3,7,1,2,16,6,,,,,,,,,,,,,,,,,,,j,0,0.2724597498308867,,,,,,,,,,,,,,,,,,,,,,,,,,,,,,,,,,,,101,002,2021_Sep_17_1136,joplin1,2021.2.3,60.250930018062405,
_train_cond.csv,1 0 0 0 0 0 0 0 0 1,8,categoryA,f,,,0,3,3,7,1,3,17,0,,,,,,,,,,,,,,,,,,,f,1,0.31421937490813434,,,,,,,,,,,,,,,,,,,,,,,,,,,,,,,,,,,,101,002,2021_Sep_17_1136,joplin1,2021.2.3,60.250930018062405,
_train_cond.csv,1 1 1 0 0 0 0 1 1 1,4,categoryB,j,,,0,3,3,7,1,4,18,10,,,,,,,,,,,,,,,,,,,j,1,0.11685858387500048,,,,,,,,,,,,,,,,,,,,,,,,,,,,,,,,,,,,101,002,2021_Sep_17_1136,joplin1,2021.2.3,60.250930018062405,
_train_cond.csv,0 0 0 1 0 0 1 0 0 0,8,categoryA,f,,,0,3,3,7,1,5,19,4,,,,,,,,,,,,,,,,,,,f,1,0.10185908293351531,,,,,,,,,,,,,,,,,,,,,,,,,,,,,,,,,,,,101,002,2021_Sep_17_1136,joplin1,2021.2.3,60.250930018062405,
_train_cond.csv,0 1 0 0 0 0 0 0 1 0,8,categoryA,f,,,0,3,3,7,1,6,20,1,,,,,,,,,,,,,,,,,,,f,1,0.46343000000342727,,,,,,,,,,,,,,,,,,,,,,,,,,,,,,,,,,,,101,002,2021_Sep_17_1136,joplin1,2021.2.3,60.250930018062405,
_train_cond.csv,0 0 0 1 1 1 1 0 0 0,6,categoryA,f,,,0,3,3,7,1,7,21,3,,,,,,,,,,,,,,,,,,,f,1,0.38732808409258723,,,,,,,,,,,,,,,,,,,,,,,,,,,,,,,,,,,,101,002,2021_Sep_17_1136,joplin1,2021.2.3,60.250930018062405,
_train_cond.csv,1 1 1 0 1 1 0 1 1 1,2,categoryB,j,,,0,3,3,7,1,8,22,11,,,,,,,,,,,,,,,,,,,j,1,0.29040845786221325,,,,,,,,,,,,,,,,,,,,,,,,,,,,,,,,,,,,101,002,2021_Sep_17_1136,joplin1,2021.2.3,60.250930018062405,
_train_cond.csv,0 0 1 0 1 1 0 1 0 0,6,categoryA,f,,,0,3,3,7,1,9,23,2,,,,,,,,,,,,,,,,,,,f,1,0.12418620800599456,,,,,,,,,,,,,,,,,,,,,,,,,,,,,,,,,,,,101,002,2021_Sep_17_1136,joplin1,2021.2.3,60.250930018062405,
_train_cond.csv,1 1 0 1 0 0 1 0 1 1,4,categoryB,j,,,0,3,3,7,1,10,24,9,,,,,,,,,,,,,,,,,,,j,1,0.10858041606843472,,,,,,,,,,,,,,,,,,,,,,,,,,,,,,,,,,,,101,002,2021_Sep_17_1136,joplin1,2021.2.3,60.250930018062405,
_train_cond.csv,0 0 1 1 1 1 1 1 0 0,4,categoryB,j,,,0,3,3,7,1,11,25,13,,,,,,,,,,,,,,,,,,,f,0,0.18893916602246463,,,,,,,,,,,,,,,,,,,,,,,,,,,,,,,,,,,,101,002,2021_Sep_17_1136,joplin1,2021.2.3,60.250930018062405,
_train_cond.csv,0 1 1 1 1 1 1 1 1 0,2,categoryB,j,,,0,3,3,7,1,12,26,7,,,,,,,,,,,,,,,,,,,f,0,0.0433912081643939,,,,,,,,,,,,,,,,,,,,,,,,,,,,,,,,,,,,101,002,2021_Sep_17_1136,joplin1,2021.2.3,60.250930018062405,
_train_cond.csv,0 0 1 0 0 0 0 1 0 0,8,categoryA,f,,,0,3,3,7,1,13,27,5,,,,,,,,,,,,,,,,,,,f,1,0.02394291595555842,,,,,,,,,,,,,,,,,,,,,,,,,,,,,,,,,,,,101,002,2021_Sep_17_1136,joplin1,2021.2.3,60.250930018062405,
_train_cond.csv,0 0 1 0 1 1 0 1 0 0,6,categoryA,f,,,0,3,3,7,2,0,28,2,,,,,,,,,,,,,,,,,,,f,1,0.16398179112002254,,,,,,,,,,,,,,,,,,,,,,,,,,,,,,,,,,,,101,002,2021_Sep_17_1136,joplin1,2021.2.3,60.250930018062405,
_train_cond.csv,1 1 0 0 0 0 0 0 1 1,6,categoryA,f,,,0,3,3,7,2,1,29,6,,,,,,,,,,,,,,,,,,,j,0,0.4683441249653697,,,,,,,,,,,,,,,,,,,,,,,,,,,,,,,,,,,,101,002,2021_Sep_17_1136,joplin1,2021.2.3,60.250930018062405,
_train_cond.csv,0 0 0 1 0 0 1 0 0 0,8,categoryA,f,,,0,3,3,7,2,2,30,4,,,,,,,,,,,,,,,,,,,f,1,0.3520122498739511,,,,,,,,,,,,,,,,,,,,,,,,,,,,,,,,,,,,101,002,2021_Sep_17_1136,joplin1,2021.2.3,60.250930018062405,
_train_cond.csv,1 1 0 1 1 1 1 0 1 1,2,categoryB,j,,,0,3,3,7,2,3,31,12,,,,,,,,,,,,,,,,,,,j,1,0.014171958202496171,,,,,,,,,,,,,,,,,,,,,,,,,,,,,,,,,,,,101,002,2021_Sep_17_1136,joplin1,2021.2.3,60.250930018062405,
_train_cond.csv,0 1 0 0 0 0 0 0 1 0,8,categoryA,f,,,0,3,3,7,2,4,32,1,,,,,,,,,,,,,,,,,,,f,1,0.11519712512381375,,,,,,,,,,,,,,,,,,,,,,,,,,,,,,,,,,,,101,002,2021_Sep_17_1136,joplin1,2021.2.3,60.250930018062405,
_train_cond.csv,0 0 0 1 1 1 1 0 0 0,6,categoryA,f,,,0,3,3,7,2,5,33,3,,,,,,,,,,,,,,,,,,,f,1,0.24423820804804564,,,,,,,,,,,,,,,,,,,,,,,,,,,,,,,,,,,,101,002,2021_Sep_17_1136,joplin1,2021.2.3,60.250930018062405,
_train_cond.csv,0 0 1 0 0 0 0 1 0 0,8,categoryA,f,,,0,3,3,7,2,6,34,5,,,,,,,,,,,,,,,,,,,j,0,0.2079034170601517,,,,,,,,,,,,,,,,,,,,,,,,,,,,,,,,,,,,101,002,2021_Sep_17_1136,joplin1,2021.2.3,60.250930018062405,
_train_cond.csv,0 1 1 1 1 1 1 1 1 0,2,categoryB,j,,,0,3,3,7,2,7,35,7,,,,,,,,,,,,,,,,,,,j,1,0.061033957870677114,,,,,,,,,,,,,,,,,,,,,,,,,,,,,,,,,,,,101,002,2021_Sep_17_1136,joplin1,2021.2.3,60.250930018062405,
_train_cond.csv,1 1 1 0 1 1 0 1 1 1,2,categoryB,j,,,0,3,3,7,2,8,36,11,,,,,,,,,,,,,,,,,,,f,0,0.46357662486843765,,,,,,,,,,,,,,,,,,,,,,,,,,,,,,,,,,,,101,002,2021_Sep_17_1136,joplin1,2021.2.3,60.250930018062405,
_train_cond.csv,1 0 0 0 0 0 0 0 0 1,8,categoryA,f,,,0,3,3,7,2,9,37,0,,,,,,,,,,,,,,,,,,,j,0,0.2186425409745425,,,,,,,,,,,,,,,,,,,,,,,,,,,,,,,,,,,,101,002,2021_Sep_17_1136,joplin1,2021.2.3,60.250930018062405,
_train_cond.csv,1 0 1 1 1 1 1 1 0 1,2,categoryB,j,,,0,3,3,7,2,10,38,8,,,,,,,,,,,,,,,,,,,f,0,0.39910070807673037,,,,,,,,,,,,,,,,,,,,,,,,,,,,,,,,,,,,101,002,2021_Sep_17_1136,joplin1,2021.2.3,60.250930018062405,
_train_cond.csv,1 1 0 1 0 0 1 0 1 1,4,categoryB,j,,,0,3,3,7,2,11,39,9,,,,,,,,,,,,,,,,,,,j,1,0.4132200828753412,,,,,,,,,,,,,,,,,,,,,,,,,,,,,,,,,,,,101,002,2021_Sep_17_1136,joplin1,2021.2.3,60.250930018062405,
_train_cond.csv,1 1 1 0 0 0 0 1 1 1,4,categoryB,j,,,0,3,3,7,2,12,40,10,,,,,,,,,,,,,,,,,,,j,1,0.3219947919715196,,,,,,,,,,,,,,,,,,,,,,,,,,,,,,,,,,,,101,002,2021_Sep_17_1136,joplin1,2021.2.3,60.250930018062405,
_train_cond.csv,0 0 1 1 1 1 1 1 0 0,4,categoryB,j,,,0,3,3,7,2,13,41,13,,,,,,,,,,,,,,,,,,,f,0,0.3157900420483202,,,,,,,,,,,,,,,,,,,,,,,,,,,,,,,,,,,,101,002,2021_Sep_17_1136,joplin1,2021.2.3,60.250930018062405,
_train_cond.csv,,,,,,,0,3,3,7,,,,,,,,,,,,,,,,,,,,,,,,,,space,1.1897472909186035,,,,,,,,,,,,,,,,,,,,,,,,,,,,,,,,,,101,002,2021_Sep_17_1136,joplin1,2021.2.3,60.250930018062405,
_train_cond.csv,0 0 0 1 0 0 1 0 0 0,8,categoryA,f,,,0,4,4,2,0,0,0,4,,,,,,,,,,,,,,,,,,,j,0,0.1299114169087261,,,,,,,,,,,,,,,,,,,,,,,,,,,,,,,,,,,,101,002,2021_Sep_17_1136,joplin1,2021.2.3,60.250930018062405,
_train_cond.csv,0 1 1 1 1 1 1 1 1 0,2,categoryB,j,,,0,4,4,2,0,1,1,7,,,,,,,,,,,,,,,,,,,j,1,0.25020070816390216,,,,,,,,,,,,,,,,,,,,,,,,,,,,,,,,,,,,101,002,2021_Sep_17_1136,joplin1,2021.2.3,60.250930018062405,
_train_cond.csv,1 0 1 1 1 1 1 1 0 1,2,categoryB,j,,,0,4,4,2,0,2,2,8,,,,,,,,,,,,,,,,,,,f,0,0.349109125090763,,,,,,,,,,,,,,,,,,,,,,,,,,,,,,,,,,,,101,002,2021_Sep_17_1136,joplin1,2021.2.3,60.250930018062405,
_train_cond.csv,0 0 1 0 1 1 0 1 0 0,6,categoryA,f,,,0,4,4,2,0,3,3,2,,,,,,,,,,,,,,,,,,,f,1,0.3096169591881335,,,,,,,,,,,,,,,,,,,,,,,,,,,,,,,,,,,,101,002,2021_Sep_17_1136,joplin1,2021.2.3,60.250930018062405,
_train_cond.csv,0 1 0 0 0 0 0 0 1 0,8,categoryA,f,,,0,4,4,2,0,4,4,1,,,,,,,,,,,,,,,,,,,f,1,0.28793670795857906,,,,,,,,,,,,,,,,,,,,,,,,,,,,,,,,,,,,101,002,2021_Sep_17_1136,joplin1,2021.2.3,60.250930018062405,
_train_cond.csv,1 1 0 1 1 1 1 0 1 1,2,categoryB,j,,,0,4,4,2,0,5,5,12,,,,,,,,,,,,,,,,,,,j,1,0.4573600001167506,,,,,,,,,,,,,,,,,,,,,,,,,,,,,,,,,,,,101,002,2021_Sep_17_1136,joplin1,2021.2.3,60.250930018062405,
_train_cond.csv,1 1 0 0 0 0 0 0 1 1,6,categoryA,f,,,0,4,4,2,0,6,6,6,,,,,,,,,,,,,,,,,,,f,1,0.39752804208546877,,,,,,,,,,,,,,,,,,,,,,,,,,,,,,,,,,,,101,002,2021_Sep_17_1136,joplin1,2021.2.3,60.250930018062405,
_train_cond.csv,1 0 0 0 0 0 0 0 0 1,8,categoryA,f,,,0,4,4,2,0,7,7,0,,,,,,,,,,,,,,,,,,,j,0,0.5960697499103844,,,,,,,,,,,,,,,,,,,,,,,,,,,,,,,,,,,,101,002,2021_Sep_17_1136,joplin1,2021.2.3,60.250930018062405,
_train_cond.csv,0 0 1 1 1 1 1 1 0 0,4,categoryB,j,,,0,4,4,2,0,8,8,13,,,,,,,,,,,,,,,,,,,f,0,0.4582873750478029,,,,,,,,,,,,,,,,,,,,,,,,,,,,,,,,,,,,101,002,2021_Sep_17_1136,joplin1,2021.2.3,60.250930018062405,
_train_cond.csv,1 1 0 1 0 0 1 0 1 1,4,categoryB,j,,,0,4,4,2,0,9,9,9,,,,,,,,,,,,,,,,,,,f,0,0.3802020000293851,,,,,,,,,,,,,,,,,,,,,,,,,,,,,,,,,,,,101,002,2021_Sep_17_1136,joplin1,2021.2.3,60.250930018062405,
_train_cond.csv,0 0 1 0 0 0 0 1 0 0,8,categoryA,f,,,0,4,4,2,0,10,10,5,,,,,,,,,,,,,,,,,,,j,0,0.25866920896805823,,,,,,,,,,,,,,,,,,,,,,,,,,,,,,,,,,,,101,002,2021_Sep_17_1136,joplin1,2021.2.3,60.250930018062405,
_train_cond.csv,0 0 0 1 1 1 1 0 0 0,6,categoryA,f,,,0,4,4,2,0,11,11,3,,,,,,,,,,,,,,,,,,,f,1,0.41410079202614725,,,,,,,,,,,,,,,,,,,,,,,,,,,,,,,,,,,,101,002,2021_Sep_17_1136,joplin1,2021.2.3,60.250930018062405,
_train_cond.csv,1 1 1 0 1 1 0 1 1 1,2,categoryB,j,,,0,4,4,2,0,12,12,11,,,,,,,,,,,,,,,,,,,j,1,0.30499870888888836,,,,,,,,,,,,,,,,,,,,,,,,,,,,,,,,,,,,101,002,2021_Sep_17_1136,joplin1,2021.2.3,60.250930018062405,
_train_cond.csv,1 1 1 0 0 0 0 1 1 1,4,categoryB,j,,,0,4,4,2,0,13,13,10,,,,,,,,,,,,,,,,,,,j,1,0.363379874965176,,,,,,,,,,,,,,,,,,,,,,,,,,,,,,,,,,,,101,002,2021_Sep_17_1136,joplin1,2021.2.3,60.250930018062405,
_train_cond.csv,0 1 1 1 1 1 1 1 1 0,2,categoryB,j,,,0,4,4,2,1,0,14,7,,,,,,,,,,,,,,,,,,,j,1,0.4666399999987334,,,,,,,,,,,,,,,,,,,,,,,,,,,,,,,,,,,,101,002,2021_Sep_17_1136,joplin1,2021.2.3,60.250930018062405,
_train_cond.csv,1 1 0 0 0 0 0 0 1 1,6,categoryA,f,,,0,4,4,2,1,1,15,6,,,,,,,,,,,,,,,,,,,j,0,0.355932375183329,,,,,,,,,,,,,,,,,,,,,,,,,,,,,,,,,,,,101,002,2021_Sep_17_1136,joplin1,2021.2.3,60.250930018062405,
_train_cond.csv,0 0 1 0 1 1 0 1 0 0,6,categoryA,f,,,0,4,4,2,1,2,16,2,,,,,,,,,,,,,,,,,,,f,1,0.43607058306224644,,,,,,,,,,,,,,,,,,,,,,,,,,,,,,,,,,,,101,002,2021_Sep_17_1136,joplin1,2021.2.3,60.250930018062405,
_train_cond.csv,0 0 1 1 1 1 1 1 0 0,4,categoryB,j,,,0,4,4,2,1,3,17,13,,,,,,,,,,,,,,,,,,,f,0,0.20072462502866983,,,,,,,,,,,,,,,,,,,,,,,,,,,,,,,,,,,,101,002,2021_Sep_17_1136,joplin1,2021.2.3,60.250930018062405,
_train_cond.csv,1 0 1 1 1 1 1 1 0 1,2,categoryB,j,,,0,4,4,2,1,4,18,8,,,,,,,,,,,,,,,,,,,j,1,0.3262720829807222,,,,,,,,,,,,,,,,,,,,,,,,,,,,,,,,,,,,101,002,2021_Sep_17_1136,joplin1,2021.2.3,60.250930018062405,
_train_cond.csv,1 1 1 0 0 0 0 1 1 1,4,categoryB,j,,,0,4,4,2,1,5,19,10,,,,,,,,,,,,,,,,,,,j,1,0.3035947910975665,,,,,,,,,,,,,,,,,,,,,,,,,,,,,,,,,,,,101,002,2021_Sep_17_1136,joplin1,2021.2.3,60.250930018062405,
_train_cond.csv,0 0 0 1 1 1 1 0 0 0,6,categoryA,f,,,0,4,4,2,1,6,20,3,,,,,,,,,,,,,,,,,,,f,1,0.17709641577675939,,,,,,,,,,,,,,,,,,,,,,,,,,,,,,,,,,,,101,002,2021_Sep_17_1136,joplin1,2021.2.3,60.250930018062405,
_train_cond.csv,1 1 0 1 0 0 1 0 1 1,4,categoryB,j,,,0,4,4,2,1,7,21,9,,,,,,,,,,,,,,,,,,,j,1,0.561094457982108,,,,,,,,,,,,,,,,,,,,,,,,,,,,,,,,,,,,101,002,2021_Sep_17_1136,joplin1,2021.2.3,60.250930018062405,
_train_cond.csv,1 1 1 0 1 1 0 1 1 1,2,categoryB,j,,,0,4,4,2,1,8,22,11,,,,,,,,,,,,,,,,,,,j,1,0.4311788328923285,,,,,,,,,,,,,,,,,,,,,,,,,,,,,,,,,,,,101,002,2021_Sep_17_1136,joplin1,2021.2.3,60.250930018062405,
_train_cond.csv,0 1 0 0 0 0 0 0 1 0,8,categoryA,f,,,0,4,4,2,1,9,23,1,,,,,,,,,,,,,,,,,,,j,0,0.45953466603532434,,,,,,,,,,,,,,,,,,,,,,,,,,,,,,,,,,,,101,002,2021_Sep_17_1136,joplin1,2021.2.3,60.250930018062405,
_train_cond.csv,1 0 0 0 0 0 0 0 0 1,8,categoryA,f,,,0,4,4,2,1,10,24,0,,,,,,,,,,,,,,,,,,,f,1,0.5276648749131709,,,,,,,,,,,,,,,,,,,,,,,,,,,,,,,,,,,,101,002,2021_Sep_17_1136,joplin1,2021.2.3,60.250930018062405,
_train_cond.csv,0 0 1 0 0 0 0 1 0 0,8,categoryA,f,,,0,4,4,2,1,11,25,5,,,,,,,,,,,,,,,,,,,f,1,0.3768083341419697,,,,,,,,,,,,,,,,,,,,,,,,,,,,,,,,,,,,101,002,2021_Sep_17_1136,joplin1,2021.2.3,60.250930018062405,
_train_cond.csv,1 1 0 1 1 1 1 0 1 1,2,categoryB,j,,,0,4,4,2,1,12,26,12,,,,,,,,,,,,,,,,,,,j,1,0.4474242499563843,,,,,,,,,,,,,,,,,,,,,,,,,,,,,,,,,,,,101,002,2021_Sep_17_1136,joplin1,2021.2.3,60.250930018062405,
_train_cond.csv,0 0 0 1 0 0 1 0 0 0,8,categoryA,f,,,0,4,4,2,1,13,27,4,,,,,,,,,,,,,,,,,,,f,1,0.35325099993497133,,,,,,,,,,,,,,,,,,,,,,,,,,,,,,,,,,,,101,002,2021_Sep_17_1136,joplin1,2021.2.3,60.250930018062405,
_train_cond.csv,0 1 0 0 0 0 0 0 1 0,8,categoryA,f,,,0,4,4,2,2,0,28,1,,,,,,,,,,,,,,,,,,,f,1,0.3778194161131978,,,,,,,,,,,,,,,,,,,,,,,,,,,,,,,,,,,,101,002,2021_Sep_17_1136,joplin1,2021.2.3,60.250930018062405,
_train_cond.csv,1 1 1 0 0 0 0 1 1 1,4,categoryB,j,,,0,4,4,2,2,1,29,10,,,,,,,,,,,,,,,,,,,j,1,0.34479637490585446,,,,,,,,,,,,,,,,,,,,,,,,,,,,,,,,,,,,101,002,2021_Sep_17_1136,joplin1,2021.2.3,60.250930018062405,
_train_cond.csv,1 0 1 1 1 1 1 1 0 1,2,categoryB,j,,,0,4,4,2,2,2,30,8,,,,,,,,,,,,,,,,,,,j,1,0.3181820421013981,,,,,,,,,,,,,,,,,,,,,,,,,,,,,,,,,,,,101,002,2021_Sep_17_1136,joplin1,2021.2.3,60.250930018062405,
_train_cond.csv,0 0 1 0 0 0 0 1 0 0,8,categoryA,f,,,0,4,4,2,2,3,31,5,,,,,,,,,,,,,,,,,,,f,1,0.24884575000032783,,,,,,,,,,,,,,,,,,,,,,,,,,,,,,,,,,,,101,002,2021_Sep_17_1136,joplin1,2021.2.3,60.250930018062405,
_train_cond.csv,1 0 0 0 0 0 0 0 0 1,8,categoryA,f,,,0,4,4,2,2,4,32,0,,,,,,,,,,,,,,,,,,,f,1,0.21185224992223084,,,,,,,,,,,,,,,,,,,,,,,,,,,,,,,,,,,,101,002,2021_Sep_17_1136,joplin1,2021.2.3,60.250930018062405,
_train_cond.csv,0 0 0 1 1 1 1 0 0 0,6,categoryA,f,,,0,4,4,2,2,5,33,3,,,,,,,,,,,,,,,,,,,f,1,0.2967074168846011,,,,,,,,,,,,,,,,,,,,,,,,,,,,,,,,,,,,101,002,2021_Sep_17_1136,joplin1,2021.2.3,60.250930018062405,
_train_cond.csv,0 1 1 1 1 1 1 1 1 0,2,categoryB,j,,,0,4,4,2,2,6,34,7,,,,,,,,,,,,,,,,,,,f,0,0.3952307919971645,,,,,,,,,,,,,,,,,,,,,,,,,,,,,,,,,,,,101,002,2021_Sep_17_1136,joplin1,2021.2.3,60.250930018062405,
_train_cond.csv,0 0 1 1 1 1 1 1 0 0,4,categoryB,j,,,0,4,4,2,2,7,35,13,,,,,,,,,,,,,,,,,,,j,1,0.3039883328601718,,,,,,,,,,,,,,,,,,,,,,,,,,,,,,,,,,,,101,002,2021_Sep_17_1136,joplin1,2021.2.3,60.250930018062405,
_train_cond.csv,1 1 1 0 1 1 0 1 1 1,2,categoryB,j,,,0,4,4,2,2,8,36,11,,,,,,,,,,,,,,,,,,,j,1,0.29662341601215303,,,,,,,,,,,,,,,,,,,,,,,,,,,,,,,,,,,,101,002,2021_Sep_17_1136,joplin1,2021.2.3,60.250930018062405,
_train_cond.csv,1 1 0 0 0 0 0 0 1 1,6,categoryA,f,,,0,4,4,2,2,9,37,6,,,,,,,,,,,,,,,,,,,f,1,0.3380622919648886,,,,,,,,,,,,,,,,,,,,,,,,,,,,,,,,,,,,101,002,2021_Sep_17_1136,joplin1,2021.2.3,60.250930018062405,
_train_cond.csv,0 0 1 0 1 1 0 1 0 0,6,categoryA,f,,,0,4,4,2,2,10,38,2,,,,,,,,,,,,,,,,,,,j,0,0.4914145830553025,,,,,,,,,,,,,,,,,,,,,,,,,,,,,,,,,,,,101,002,2021_Sep_17_1136,joplin1,2021.2.3,60.250930018062405,
_train_cond.csv,1 1 0 1 1 1 1 0 1 1,2,categoryB,j,,,0,4,4,2,2,11,39,12,,,,,,,,,,,,,,,,,,,f,0,0.3897583328653127,,,,,,,,,,,,,,,,,,,,,,,,,,,,,,,,,,,,101,002,2021_Sep_17_1136,joplin1,2021.2.3,60.250930018062405,
_train_cond.csv,1 1 0 1 0 0 1 0 1 1,4,categoryB,j,,,0,4,4,2,2,12,40,9,,,,,,,,,,,,,,,,,,,f,0,0.3791100839152932,,,,,,,,,,,,,,,,,,,,,,,,,,,,,,,,,,,,101,002,2021_Sep_17_1136,joplin1,2021.2.3,60.250930018062405,
_train_cond.csv,0 0 0 1 0 0 1 0 0 0,8,categoryA,f,,,0,4,4,2,2,13,41,4,,,,,,,,,,,,,,,,,,,f,1,0.3706102080177516,,,,,,,,,,,,,,,,,,,,,,,,,,,,,,,,,,,,101,002,2021_Sep_17_1136,joplin1,2021.2.3,60.250930018062405,
_train_cond.csv,,,,,,,0,4,4,2,,,,,,,,,,,,,,,,,,,,,,,,,,space,1.0243557500652969,,,,,,,,,,,,,,,,,,,,,,,,,,,,,,,,,,101,002,2021_Sep_17_1136,joplin1,2021.2.3,60.250930018062405,
_train_cond.csv,1 1 0 1 0 0 1 0 1 1,4,categoryB,j,,,0,5,5,3,0,0,0,9,,,,,,,,,,,,,,,,,,,j,1,0.6201632919255644,,,,,,,,,,,,,,,,,,,,,,,,,,,,,,,,,,,,101,002,2021_Sep_17_1136,joplin1,2021.2.3,60.250930018062405,
_train_cond.csv,0 1 1 1 1 1 1 1 1 0,2,categoryB,j,,,0,5,5,3,0,1,1,7,,,,,,,,,,,,,,,,,,,j,1,0.4318209590855986,,,,,,,,,,,,,,,,,,,,,,,,,,,,,,,,,,,,101,002,2021_Sep_17_1136,joplin1,2021.2.3,60.250930018062405,
_train_cond.csv,0 0 1 0 1 1 0 1 0 0,6,categoryA,f,,,0,5,5,3,0,2,2,2,,,,,,,,,,,,,,,,,,,j,0,0.3972341250628233,,,,,,,,,,,,,,,,,,,,,,,,,,,,,,,,,,,,101,002,2021_Sep_17_1136,joplin1,2021.2.3,60.250930018062405,
_train_cond.csv,1 1 0 0 0 0 0 0 1 1,6,categoryA,f,,,0,5,5,3,0,3,3,6,,,,,,,,,,,,,,,,,,,f,1,0.2819960000924766,,,,,,,,,,,,,,,,,,,,,,,,,,,,,,,,,,,,101,002,2021_Sep_17_1136,joplin1,2021.2.3,60.250930018062405,
_train_cond.csv,1 1 1 0 0 0 0 1 1 1,4,categoryB,j,,,0,5,5,3,0,4,4,10,,,,,,,,,,,,,,,,,,,j,1,0.2771546251606196,,,,,,,,,,,,,,,,,,,,,,,,,,,,,,,,,,,,101,002,2021_Sep_17_1136,joplin1,2021.2.3,60.250930018062405,
_train_cond.csv,1 1 0 1 1 1 1 0 1 1,2,categoryB,j,,,0,5,5,3,0,5,5,12,,,,,,,,,,,,,,,,,,,f,0,0.3193961661309004,,,,,,,,,,,,,,,,,,,,,,,,,,,,,,,,,,,,101,002,2021_Sep_17_1136,joplin1,2021.2.3,60.250930018062405,
_train_cond.csv,1 1 1 0 1 1 0 1 1 1,2,categoryB,j,,,0,5,5,3,0,6,6,11,,,,,,,,,,,,,,,,,,,j,1,0.3520652090664953,,,,,,,,,,,,,,,,,,,,,,,,,,,,,,,,,,,,101,002,2021_Sep_17_1136,joplin1,2021.2.3,60.250930018062405,
_train_cond.csv,0 0 0 1 1 1 1 0 0 0,6,categoryA,f,,,0,5,5,3,0,7,7,3,,,,,,,,,,,,,,,,,,,f,1,0.3978938751388341,,,,,,,,,,,,,,,,,,,,,,,,,,,,,,,,,,,,101,002,2021_Sep_17_1136,joplin1,2021.2.3,60.250930018062405,
_train_cond.csv,0 0 1 0 0 0 0 1 0 0,8,categoryA,f,,,0,5,5,3,0,8,8,5,,,,,,,,,,,,,,,,,,,f,1,0.4360029168892652,,,,,,,,,,,,,,,,,,,,,,,,,,,,,,,,,,,,101,002,2021_Sep_17_1136,joplin1,2021.2.3,60.250930018062405,
_train_cond.csv,0 0 1 1 1 1 1 1 0 0,4,categoryB,j,,,0,5,5,3,0,9,9,13,,,,,,,,,,,,,,,,,,,f,0,0.8807082921266556,,,,,,,,,,,,,,,,,,,,,,,,,,,,,,,,,,,,101,002,2021_Sep_17_1136,joplin1,2021.2.3,60.250930018062405,
_train_cond.csv,1 0 1 1 1 1 1 1 0 1,2,categoryB,j,,,0,5,5,3,0,10,10,8,,,,,,,,,,,,,,,,,,,f,0,0.41900908295065165,,,,,,,,,,,,,,,,,,,,,,,,,,,,,,,,,,,,101,002,2021_Sep_17_1136,joplin1,2021.2.3,60.250930018062405,
_train_cond.csv,0 0 0 1 0 0 1 0 0 0,8,categoryA,f,,,0,5,5,3,0,11,11,4,,,,,,,,,,,,,,,,,,,j,0,0.3419122500345111,,,,,,,,,,,,,,,,,,,,,,,,,,,,,,,,,,,,101,002,2021_Sep_17_1136,joplin1,2021.2.3,60.250930018062405,
_train_cond.csv,1 0 0 0 0 0 0 0 0 1,8,categoryA,f,,,0,5,5,3,0,12,12,0,,,,,,,,,,,,,,,,,,,f,1,0.22223612503148615,,,,,,,,,,,,,,,,,,,,,,,,,,,,,,,,,,,,101,002,2021_Sep_17_1136,joplin1,2021.2.3,60.250930018062405,
_train_cond.csv,0 1 0 0 0 0 0 0 1 0,8,categoryA,f,,,0,5,5,3,0,13,13,1,,,,,,,,,,,,,,,,,,,f,1,0.26663245912641287,,,,,,,,,,,,,,,,,,,,,,,,,,,,,,,,,,,,101,002,2021_Sep_17_1136,joplin1,2021.2.3,60.250930018062405,
_train_cond.csv,1 1 1 0 1 1 0 1 1 1,2,categoryB,j,,,0,5,5,3,1,0,14,11,,,,,,,,,,,,,,,,,,,j,1,0.19784558401443064,,,,,,,,,,,,,,,,,,,,,,,,,,,,,,,,,,,,101,002,2021_Sep_17_1136,joplin1,2021.2.3,60.250930018062405,
_train_cond.csv,0 0 1 0 0 0 0 1 0 0,8,categoryA,f,,,0,5,5,3,1,1,15,5,,,,,,,,,,,,,,,,,,,f,1,0.33891241694800556,,,,,,,,,,,,,,,,,,,,,,,,,,,,,,,,,,,,101,002,2021_Sep_17_1136,joplin1,2021.2.3,60.250930018062405,
_train_cond.csv,0 1 0 0 0 0 0 0 1 0,8,categoryA,f,,,0,5,5,3,1,2,16,1,,,,,,,,,,,,,,,,,,,f,1,0.29983820812776685,,,,,,,,,,,,,,,,,,,,,,,,,,,,,,,,,,,,101,002,2021_Sep_17_1136,joplin1,2021.2.3,60.250930018062405,
_train_cond.csv,0 1 1 1 1 1 1 1 1 0,2,categoryB,j,,,0,5,5,3,1,3,17,7,,,,,,,,,,,,,,,,,,,j,1,0.316705625038594,,,,,,,,,,,,,,,,,,,,,,,,,,,,,,,,,,,,101,002,2021_Sep_17_1136,joplin1,2021.2.3,60.250930018062405,
_train_cond.csv,1 1 0 0 0 0 0 0 1 1,6,categoryA,f,,,0,5,5,3,1,4,18,6,,,,,,,,,,,,,,,,,,,f,1,0.3560980421025306,,,,,,,,,,,,,,,,,,,,,,,,,,,,,,,,,,,,101,002,2021_Sep_17_1136,joplin1,2021.2.3,60.250930018062405,
_train_cond.csv,1 1 0 1 0 0 1 0 1 1,4,categoryB,j,,,0,5,5,3,1,5,19,9,,,,,,,,,,,,,,,,,,,j,1,0.5963058748748153,,,,,,,,,,,,,,,,,,,,,,,,,,,,,,,,,,,,101,002,2021_Sep_17_1136,joplin1,2021.2.3,60.250930018062405,
_train_cond.csv,0 0 0 1 1 1 1 0 0 0,6,categoryA,f,,,0,5,5,3,1,6,20,3,,,,,,,,,,,,,,,,,,,f,1,0.36060258303768933,,,,,,,,,,,,,,,,,,,,,,,,,,,,,,,,,,,,101,002,2021_Sep_17_1136,joplin1,2021.2.3,60.250930018062405,
_train_cond.csv,0 0 1 0 1 1 0 1 0 0,6,categoryA,f,,,0,5,5,3,1,7,21,2,,,,,,,,,,,,,,,,,,,f,1,0.360044333152473,,,,,,,,,,,,,,,,,,,,,,,,,,,,,,,,,,,,101,002,2021_Sep_17_1136,joplin1,2021.2.3,60.250930018062405,
_train_cond.csv,1 0 0 0 0 0 0 0 0 1,8,categoryA,f,,,0,5,5,3,1,8,22,0,,,,,,,,,,,,,,,,,,,f,1,0.49554383312352,,,,,,,,,,,,,,,,,,,,,,,,,,,,,,,,,,,,101,002,2021_Sep_17_1136,joplin1,2021.2.3,60.250930018062405,
_train_cond.csv,1 0 1 1 1 1 1 1 0 1,2,categoryB,j,,,0,5,5,3,1,9,23,8,,,,,,,,,,,,,,,,,,,f,0,0.49831270799040794,,,,,,,,,,,,,,,,,,,,,,,,,,,,,,,,,,,,101,002,2021_Sep_17_1136,joplin1,2021.2.3,60.250930018062405,
_train_cond.csv,0 0 1 1 1 1 1 1 0 0,4,categoryB,j,,,0,5,5,3,1,10,24,13,,,,,,,,,,,,,,,,,,,j,1,0.42813837504945695,,,,,,,,,,,,,,,,,,,,,,,,,,,,,,,,,,,,101,002,2021_Sep_17_1136,joplin1,2021.2.3,60.250930018062405,
_train_cond.csv,0 0 0 1 0 0 1 0 0 0,8,categoryA,f,,,0,5,5,3,1,11,25,4,,,,,,,,,,,,,,,,,,,f,1,0.336194165982306,,,,,,,,,,,,,,,,,,,,,,,,,,,,,,,,,,,,101,002,2021_Sep_17_1136,joplin1,2021.2.3,60.250930018062405,
_train_cond.csv,1 1 0 1 1 1 1 0 1 1,2,categoryB,j,,,0,5,5,3,1,12,26,12,,,,,,,,,,,,,,,,,,,j,1,0.36851929198019207,,,,,,,,,,,,,,,,,,,,,,,,,,,,,,,,,,,,101,002,2021_Sep_17_1136,joplin1,2021.2.3,60.250930018062405,
_train_cond.csv,1 1 1 0 0 0 0 1 1 1,4,categoryB,j,,,0,5,5,3,1,13,27,10,,,,,,,,,,,,,,,,,,,j,1,0.4531735840719193,,,,,,,,,,,,,,,,,,,,,,,,,,,,,,,,,,,,101,002,2021_Sep_17_1136,joplin1,2021.2.3,60.250930018062405,
_train_cond.csv,0 0 1 0 0 0 0 1 0 0,8,categoryA,f,,,0,5,5,3,2,0,28,5,,,,,,,,,,,,,,,,,,,f,1,0.5846283750142902,,,,,,,,,,,,,,,,,,,,,,,,,,,,,,,,,,,,101,002,2021_Sep_17_1136,joplin1,2021.2.3,60.250930018062405,
_train_cond.csv,1 0 0 0 0 0 0 0 0 1,8,categoryA,f,,,0,5,5,3,2,1,29,0,,,,,,,,,,,,,,,,,,,f,1,0.3594206250272691,,,,,,,,,,,,,,,,,,,,,,,,,,,,,,,,,,,,101,002,2021_Sep_17_1136,joplin1,2021.2.3,60.250930018062405,
_train_cond.csv,0 0 1 0 1 1 0 1 0 0,6,categoryA,f,,,0,5,5,3,2,2,30,2,,,,,,,,,,,,,,,,,,,j,0,0.3664519579615444,,,,,,,,,,,,,,,,,,,,,,,,,,,,,,,,,,,,101,002,2021_Sep_17_1136,joplin1,2021.2.3,60.250930018062405,
_train_cond.csv,0 1 0 0 0 0 0 0 1 0,8,categoryA,f,,,0,5,5,3,2,3,31,1,,,,,,,,,,,,,,,,,,,f,1,0.2455257091205567,,,,,,,,,,,,,,,,,,,,,,,,,,,,,,,,,,,,101,002,2021_Sep_17_1136,joplin1,2021.2.3,60.250930018062405,
_train_cond.csv,1 0 1 1 1 1 1 1 0 1,2,categoryB,j,,,0,5,5,3,2,4,32,8,,,,,,,,,,,,,,,,,,,j,1,0.47249454190023243,,,,,,,,,,,,,,,,,,,,,,,,,,,,,,,,,,,,101,002,2021_Sep_17_1136,joplin1,2021.2.3,60.250930018062405,
_train_cond.csv,0 0 0 1 1 1 1 0 0 0,6,categoryA,f,,,0,5,5,3,2,5,33,3,,,,,,,,,,,,,,,,,,,j,0,0.39543966692872345,,,,,,,,,,,,,,,,,,,,,,,,,,,,,,,,,,,,101,002,2021_Sep_17_1136,joplin1,2021.2.3,60.250930018062405,
_train_cond.csv,1 1 0 1 1 1 1 0 1 1,2,categoryB,j,,,0,5,5,3,2,6,34,12,,,,,,,,,,,,,,,,,,,f,0,0.36932291579432786,,,,,,,,,,,,,,,,,,,,,,,,,,,,,,,,,,,,101,002,2021_Sep_17_1136,joplin1,2021.2.3,60.250930018062405,
_train_cond.csv,1 1 1 0 0 0 0 1 1 1,4,categoryB,j,,,0,5,5,3,2,7,35,10,,,,,,,,,,,,,,,,,,,j,1,0.5039466249290854,,,,,,,,,,,,,,,,,,,,,,,,,,,,,,,,,,,,101,002,2021_Sep_17_1136,joplin1,2021.2.3,60.250930018062405,
_train_cond.csv,0 0 0 1 0 0 1 0 0 0,8,categoryA,f,,,0,5,5,3,2,8,36,4,,,,,,,,,,,,,,,,,,,f,1,0.45711441594175994,,,,,,,,,,,,,,,,,,,,,,,,,,,,,,,,,,,,101,002,2021_Sep_17_1136,joplin1,2021.2.3,60.250930018062405,
_train_cond.csv,0 1 1 1 1 1 1 1 1 0,2,categoryB,j,,,0,5,5,3,2,9,37,7,,,,,,,,,,,,,,,,,,,j,1,0.30925649986602366,,,,,,,,,,,,,,,,,,,,,,,,,,,,,,,,,,,,101,002,2021_Sep_17_1136,joplin1,2021.2.3,60.250930018062405,
_train_cond.csv,0 0 1 1 1 1 1 1 0 0,4,categoryB,j,,,0,5,5,3,2,10,38,13,,,,,,,,,,,,,,,,,,,f,0,0.5569845421705395,,,,,,,,,,,,,,,,,,,,,,,,,,,,,,,,,,,,101,002,2021_Sep_17_1136,joplin1,2021.2.3,60.250930018062405,
_train_cond.csv,1 1 1 0 1 1 0 1 1 1,2,categoryB,j,,,0,5,5,3,2,11,39,11,,,,,,,,,,,,,,,,,,,j,1,0.09071383299306035,,,,,,,,,,,,,,,,,,,,,,,,,,,,,,,,,,,,101,002,2021_Sep_17_1136,joplin1,2021.2.3,60.250930018062405,
_train_cond.csv,1 1 0 0 0 0 0 0 1 1,6,categoryA,f,,,0,5,5,3,2,12,40,6,,,,,,,,,,,,,,,,,,,j,0,0.30874191713519394,,,,,,,,,,,,,,,,,,,,,,,,,,,,,,,,,,,,101,002,2021_Sep_17_1136,joplin1,2021.2.3,60.250930018062405,
_train_cond.csv,1 1 0 1 0 0 1 0 1 1,4,categoryB,j,,,0,5,5,3,2,13,41,9,,,,,,,,,,,,,,,,,,,f,0,0.3737955829128623,,,,,,,,,,,,,,,,,,,,,,,,,,,,,,,,,,,,101,002,2021_Sep_17_1136,joplin1,2021.2.3,60.250930018062405,
_train_cond.csv,,,,,,,0,5,5,3,,,,,,,,,,,,,,,,,,,,,,,,,,space,2.884560541016981,,,,,,,,,,,,,,,,,,,,,,,,,,,,,,,,,,101,002,2021_Sep_17_1136,joplin1,2021.2.3,60.250930018062405,
_train_cond.csv,0 1 0 0 0 0 0 0 1 0,8,categoryA,f,,,0,6,6,1,0,0,0,1,,,,,,,,,,,,,,,,,,,f,1,0.17319062515161932,,,,,,,,,,,,,,,,,,,,,,,,,,,,,,,,,,,,101,002,2021_Sep_17_1136,joplin1,2021.2.3,60.250930018062405,
_train_cond.csv,1 1 0 1 1 1 1 0 1 1,2,categoryB,j,,,0,6,6,1,0,1,1,12,,,,,,,,,,,,,,,,,,,f,0,0.4832652499899268,,,,,,,,,,,,,,,,,,,,,,,,,,,,,,,,,,,,101,002,2021_Sep_17_1136,joplin1,2021.2.3,60.250930018062405,
_train_cond.csv,1 1 1 0 1 1 0 1 1 1,2,categoryB,j,,,0,6,6,1,0,2,2,11,,,,,,,,,,,,,,,,,,,j,1,0.2294327081181109,,,,,,,,,,,,,,,,,,,,,,,,,,,,,,,,,,,,101,002,2021_Sep_17_1136,joplin1,2021.2.3,60.250930018062405,
_train_cond.csv,0 0 0 1 1 1 1 0 0 0,6,categoryA,f,,,0,6,6,1,0,3,3,3,,,,,,,,,,,,,,,,,,,f,1,0.3547546660993248,,,,,,,,,,,,,,,,,,,,,,,,,,,,,,,,,,,,101,002,2021_Sep_17_1136,joplin1,2021.2.3,60.250930018062405,
_train_cond.csv,1 1 0 0 0 0 0 0 1 1,6,categoryA,f,,,0,6,6,1,0,4,4,6,,,,,,,,,,,,,,,,,,,f,1,0.5287470410112292,,,,,,,,,,,,,,,,,,,,,,,,,,,,,,,,,,,,101,002,2021_Sep_17_1136,joplin1,2021.2.3,60.250930018062405,
_train_cond.csv,0 0 1 0 1 1 0 1 0 0,6,categoryA,f,,,0,6,6,1,0,5,5,2,,,,,,,,,,,,,,,,,,,j,0,0.12324775010347366,,,,,,,,,,,,,,,,,,,,,,,,,,,,,,,,,,,,101,002,2021_Sep_17_1136,joplin1,2021.2.3,60.250930018062405,
_train_cond.csv,1 0 0 0 0 0 0 0 0 1,8,categoryA,f,,,0,6,6,1,0,6,6,0,,,,,,,,,,,,,,,,,,,f,1,0.27349195885472,,,,,,,,,,,,,,,,,,,,,,,,,,,,,,,,,,,,101,002,2021_Sep_17_1136,joplin1,2021.2.3,60.250930018062405,
_train_cond.csv,0 1 1 1 1 1 1 1 1 0,2,categoryB,j,,,0,6,6,1,0,7,7,7,,,,,,,,,,,,,,,,,,,j,1,0.12341908295638859,,,,,,,,,,,,,,,,,,,,,,,,,,,,,,,,,,,,101,002,2021_Sep_17_1136,joplin1,2021.2.3,60.250930018062405,
_train_cond.csv,0 0 1 0 0 0 0 1 0 0,8,categoryA,f,,,0,6,6,1,0,8,8,5,,,,,,,,,,,,,,,,,,,f,1,0.5479827912058681,,,,,,,,,,,,,,,,,,,,,,,,,,,,,,,,,,,,101,002,2021_Sep_17_1136,joplin1,2021.2.3,60.250930018062405,
_train_cond.csv,0 0 1 1 1 1 1 1 0 0,4,categoryB,j,,,0,6,6,1,0,9,9,13,,,,,,,,,,,,,,,,,,,f,0,0.3561517500784248,,,,,,,,,,,,,,,,,,,,,,,,,,,,,,,,,,,,101,002,2021_Sep_17_1136,joplin1,2021.2.3,60.250930018062405,
_train_cond.csv,1 1 0 1 0 0 1 0 1 1,4,categoryB,j,,,0,6,6,1,0,10,10,9,,,,,,,,,,,,,,,,,,,j,1,0.3453180838841945,,,,,,,,,,,,,,,,,,,,,,,,,,,,,,,,,,,,101,002,2021_Sep_17_1136,joplin1,2021.2.3,60.250930018062405,
_train_cond.csv,1 0 1 1 1 1 1 1 0 1,2,categoryB,j,,,0,6,6,1,0,11,11,8,,,,,,,,,,,,,,,,,,,j,1,0.3533800831064582,,,,,,,,,,,,,,,,,,,,,,,,,,,,,,,,,,,,101,002,2021_Sep_17_1136,joplin1,2021.2.3,60.250930018062405,
_train_cond.csv,1 1 1 0 0 0 0 1 1 1,4,categoryB,j,,,0,6,6,1,0,12,12,10,,,,,,,,,,,,,,,,,,,j,1,0.3777061249129474,,,,,,,,,,,,,,,,,,,,,,,,,,,,,,,,,,,,101,002,2021_Sep_17_1136,joplin1,2021.2.3,60.250930018062405,
_train_cond.csv,0 0 0 1 0 0 1 0 0 0,8,categoryA,f,,,0,6,6,1,0,13,13,4,,,,,,,,,,,,,,,,,,,f,1,0.20761295780539513,,,,,,,,,,,,,,,,,,,,,,,,,,,,,,,,,,,,101,002,2021_Sep_17_1136,joplin1,2021.2.3,60.250930018062405,
_train_cond.csv,0 0 1 1 1 1 1 1 0 0,4,categoryB,j,,,0,6,6,1,1,0,14,13,,,,,,,,,,,,,,,,,,,j,1,0.4616526660975069,,,,,,,,,,,,,,,,,,,,,,,,,,,,,,,,,,,,101,002,2021_Sep_17_1136,joplin1,2021.2.3,60.250930018062405,
_train_cond.csv,0 1 1 1 1 1 1 1 1 0,2,categoryB,j,,,0,6,6,1,1,1,15,7,,,,,,,,,,,,,,,,,,,f,0,0.37507037492468953,,,,,,,,,,,,,,,,,,,,,,,,,,,,,,,,,,,,101,002,2021_Sep_17_1136,joplin1,2021.2.3,60.250930018062405,
_train_cond.csv,1 1 1 0 1 1 0 1 1 1,2,categoryB,j,,,0,6,6,1,1,2,16,11,,,,,,,,,,,,,,,,,,,j,1,0.07068933406844735,,,,,,,,,,,,,,,,,,,,,,,,,,,,,,,,,,,,101,002,2021_Sep_17_1136,joplin1,2021.2.3,60.250930018062405,
_train_cond.csv,1 0 0 0 0 0 0 0 0 1,8,categoryA,f,,,0,6,6,1,1,3,17,0,,,,,,,,,,,,,,,,,,,f,1,0.168055749963969,,,,,,,,,,,,,,,,,,,,,,,,,,,,,,,,,,,,101,002,2021_Sep_17_1136,joplin1,2021.2.3,60.250930018062405,
_train_cond.csv,0 0 1 0 1 1 0 1 0 0,6,categoryA,f,,,0,6,6,1,1,4,18,2,,,,,,,,,,,,,,,,,,,f,1,0.2472315828781575,,,,,,,,,,,,,,,,,,,,,,,,,,,,,,,,,,,,101,002,2021_Sep_17_1136,joplin1,2021.2.3,60.250930018062405,
_train_cond.csv,0 1 0 0 0 0 0 0 1 0,8,categoryA,f,,,0,6,6,1,1,5,19,1,,,,,,,,,,,,,,,,,,,f,1,0.4200397911481559,,,,,,,,,,,,,,,,,,,,,,,,,,,,,,,,,,,,101,002,2021_Sep_17_1136,joplin1,2021.2.3,60.250930018062405,
_train_cond.csv,1 1 1 0 0 0 0 1 1 1,4,categoryB,j,,,0,6,6,1,1,6,20,10,,,,,,,,,,,,,,,,,,,j,1,0.5053196668159217,,,,,,,,,,,,,,,,,,,,,,,,,,,,,,,,,,,,101,002,2021_Sep_17_1136,joplin1,2021.2.3,60.250930018062405,
_train_cond.csv,1 1 0 1 0 0 1 0 1 1,4,categoryB,j,,,0,6,6,1,1,7,21,9,,,,,,,,,,,,,,,,,,,j,1,0.45009420812129974,,,,,,,,,,,,,,,,,,,,,,,,,,,,,,,,,,,,101,002,2021_Sep_17_1136,joplin1,2021.2.3,60.250930018062405,
_train_cond.csv,1 1 0 1 1 1 1 0 1 1,2,categoryB,j,,,0,6,6,1,1,8,22,12,,,,,,,,,,,,,,,,,,,f,0,0.5193745421711355,,,,,,,,,,,,,,,,,,,,,,,,,,,,,,,,,,,,101,002,2021_Sep_17_1136,joplin1,2021.2.3,60.250930018062405,
_train_cond.csv,0 0 0 1 1 1 1 0 0 0,6,categoryA,f,,,0,6,6,1,1,9,23,3,,,,,,,,,,,,,,,,,,,f,1,0.3855764998588711,,,,,,,,,,,,,,,,,,,,,,,,,,,,,,,,,,,,101,002,2021_Sep_17_1136,joplin1,2021.2.3,60.250930018062405,
_train_cond.csv,1 1 0 0 0 0 0 0 1 1,6,categoryA,f,,,0,6,6,1,1,10,24,6,,,,,,,,,,,,,,,,,,,j,0,0.4716981251258403,,,,,,,,,,,,,,,,,,,,,,,,,,,,,,,,,,,,101,002,2021_Sep_17_1136,joplin1,2021.2.3,60.250930018062405,
_train_cond.csv,0 0 0 1 0 0 1 0 0 0,8,categoryA,f,,,0,6,6,1,1,11,25,4,,,,,,,,,,,,,,,,,,,f,1,0.39404245908372104,,,,,,,,,,,,,,,,,,,,,,,,,,,,,,,,,,,,101,002,2021_Sep_17_1136,joplin1,2021.2.3,60.250930018062405,
_train_cond.csv,0 0 1 0 0 0 0 1 0 0,8,categoryA,f,,,0,6,6,1,1,12,26,5,,,,,,,,,,,,,,,,,,,f,1,0.37655495782382786,,,,,,,,,,,,,,,,,,,,,,,,,,,,,,,,,,,,101,002,2021_Sep_17_1136,joplin1,2021.2.3,60.250930018062405,
_train_cond.csv,1 0 1 1 1 1 1 1 0 1,2,categoryB,j,,,0,6,6,1,1,13,27,8,,,,,,,,,,,,,,,,,,,f,0,0.6296159168705344,,,,,,,,,,,,,,,,,,,,,,,,,,,,,,,,,,,,101,002,2021_Sep_17_1136,joplin1,2021.2.3,60.250930018062405,
_train_cond.csv,1 1 0 0 0 0 0 0 1 1,6,categoryA,f,,,0,6,6,1,2,0,28,6,,,,,,,,,,,,,,,,,,,j,0,0.4751184999477118,,,,,,,,,,,,,,,,,,,,,,,,,,,,,,,,,,,,101,002,2021_Sep_17_1136,joplin1,2021.2.3,60.250930018062405,
_train_cond.csv,1 1 1 0 0 0 0 1 1 1,4,categoryB,j,,,0,6,6,1,2,1,29,10,,,,,,,,,,,,,,,,,,,f,0,0.5491752089001238,,,,,,,,,,,,,,,,,,,,,,,,,,,,,,,,,,,,101,002,2021_Sep_17_1136,joplin1,2021.2.3,60.250930018062405,
_train_cond.csv,1 1 1 0 1 1 0 1 1 1,2,categoryB,j,,,0,6,6,1,2,2,30,11,,,,,,,,,,,,,,,,,,,j,1,0.5553803748916835,,,,,,,,,,,,,,,,,,,,,,,,,,,,,,,,,,,,101,002,2021_Sep_17_1136,joplin1,2021.2.3,60.250930018062405,
_train_cond.csv,1 0 0 0 0 0 0 0 0 1,8,categoryA,f,,,0,6,6,1,2,3,31,0,,,,,,,,,,,,,,,,,,,f,1,0.3701272909529507,,,,,,,,,,,,,,,,,,,,,,,,,,,,,,,,,,,,101,002,2021_Sep_17_1136,joplin1,2021.2.3,60.250930018062405,
_train_cond.csv,0 1 1 1 1 1 1 1 1 0,2,categoryB,j,,,0,6,6,1,2,4,32,7,,,,,,,,,,,,,,,,,,,j,1,0.4958144170232117,,,,,,,,,,,,,,,,,,,,,,,,,,,,,,,,,,,,101,002,2021_Sep_17_1136,joplin1,2021.2.3,60.250930018062405,
_train_cond.csv,1 0 1 1 1 1 1 1 0 1,2,categoryB,j,,,0,6,6,1,2,5,33,8,,,,,,,,,,,,,,,,,,,j,1,0.5866518749389797,,,,,,,,,,,,,,,,,,,,,,,,,,,,,,,,,,,,101,002,2021_Sep_17_1136,joplin1,2021.2.3,60.250930018062405,
_train_cond.csv,0 0 1 0 1 1 0 1 0 0,6,categoryA,f,,,0,6,6,1,2,6,34,2,,,,,,,,,,,,,,,,,,,j,0,0.4725839998573065,,,,,,,,,,,,,,,,,,,,,,,,,,,,,,,,,,,,101,002,2021_Sep_17_1136,joplin1,2021.2.3,60.250930018062405,
_train_cond.csv,0 0 1 0 0 0 0 1 0 0,8,categoryA,f,,,0,6,6,1,2,7,35,5,,,,,,,,,,,,,,,,,,,j,0,0.4034732498694211,,,,,,,,,,,,,,,,,,,,,,,,,,,,,,,,,,,,101,002,2021_Sep_17_1136,joplin1,2021.2.3,60.250930018062405,
_train_cond.csv,0 0 0 1 0 0 1 0 0 0,8,categoryA,f,,,0,6,6,1,2,8,36,4,,,,,,,,,,,,,,,,,,,f,1,0.5052333332132548,,,,,,,,,,,,,,,,,,,,,,,,,,,,,,,,,,,,101,002,2021_Sep_17_1136,joplin1,2021.2.3,60.250930018062405,
_train_cond.csv,1 1 0 1 1 1 1 0 1 1,2,categoryB,j,,,0,6,6,1,2,9,37,12,,,,,,,,,,,,,,,,,,,j,1,0.20979704102501273,,,,,,,,,,,,,,,,,,,,,,,,,,,,,,,,,,,,101,002,2021_Sep_17_1136,joplin1,2021.2.3,60.250930018062405,
_train_cond.csv,1 1 0 1 0 0 1 0 1 1,4,categoryB,j,,,0,6,6,1,2,10,38,9,,,,,,,,,,,,,,,,,,,f,0,0.6400522920303047,,,,,,,,,,,,,,,,,,,,,,,,,,,,,,,,,,,,101,002,2021_Sep_17_1136,joplin1,2021.2.3,60.250930018062405,
_train_cond.csv,0 0 0 1 1 1 1 0 0 0,6,categoryA,f,,,0,6,6,1,2,11,39,3,,,,,,,,,,,,,,,,,,,j,0,0.4274521670304239,,,,,,,,,,,,,,,,,,,,,,,,,,,,,,,,,,,,101,002,2021_Sep_17_1136,joplin1,2021.2.3,60.250930018062405,
_train_cond.csv,0 1 0 0 0 0 0 0 1 0,8,categoryA,f,,,0,6,6,1,2,12,40,1,,,,,,,,,,,,,,,,,,,f,1,0.42426266707479954,,,,,,,,,,,,,,,,,,,,,,,,,,,,,,,,,,,,101,002,2021_Sep_17_1136,joplin1,2021.2.3,60.250930018062405,
_train_cond.csv,0 0 1 1 1 1 1 1 0 0,4,categoryB,j,,,0,6,6,1,2,13,41,13,,,,,,,,,,,,,,,,,,,j,1,0.4920693750027567,,,,,,,,,,,,,,,,,,,,,,,,,,,,,,,,,,,,101,002,2021_Sep_17_1136,joplin1,2021.2.3,60.250930018062405,
_train_cond.csv,,,,,,,0,6,6,1,,,,,,,,,,,,,,,,,,,,,,,,,,space,39.67894341610372,,,,,,,,,,,,,,,,,,,,,,,,,,,,,,,,,,101,002,2021_Sep_17_1136,joplin1,2021.2.3,60.250930018062405,
_train_cond.csv,1 1 0 1 0 0 1 0 1 1,4,categoryB,j,,,0,7,7,6,0,0,0,9,,,,,,,,,,,,,,,,,,,f,0,0.43694625003263354,,,,,,,,,,,,,,,,,,,,,,,,,,,,,,,,,,,,101,002,2021_Sep_17_1136,joplin1,2021.2.3,60.250930018062405,
_train_cond.csv,0 0 1 0 1 1 0 1 0 0,6,categoryA,f,,,0,7,7,6,0,1,1,2,,,,,,,,,,,,,,,,,,,j,0,0.554233041126281,,,,,,,,,,,,,,,,,,,,,,,,,,,,,,,,,,,,101,002,2021_Sep_17_1136,joplin1,2021.2.3,60.250930018062405,
_train_cond.csv,1 1 0 0 0 0 0 0 1 1,6,categoryA,f,,,0,7,7,6,0,2,2,6,,,,,,,,,,,,,,,,,,,f,1,0.38496612501330674,,,,,,,,,,,,,,,,,,,,,,,,,,,,,,,,,,,,101,002,2021_Sep_17_1136,joplin1,2021.2.3,60.250930018062405,
_train_cond.csv,0 0 1 0 0 0 0 1 0 0,8,categoryA,f,,,0,7,7,6,0,3,3,5,,,,,,,,,,,,,,,,,,,f,1,0.42215754208154976,,,,,,,,,,,,,,,,,,,,,,,,,,,,,,,,,,,,101,002,2021_Sep_17_1136,joplin1,2021.2.3,60.250930018062405,
_train_cond.csv,1 1 1 0 0 0 0 1 1 1,4,categoryB,j,,,0,7,7,6,0,4,4,10,,,,,,,,,,,,,,,,,,,j,1,0.5237418338656425,,,,,,,,,,,,,,,,,,,,,,,,,,,,,,,,,,,,101,002,2021_Sep_17_1136,joplin1,2021.2.3,60.250930018062405,
_train_cond.csv,1 1 0 1 1 1 1 0 1 1,2,categoryB,j,,,0,7,7,6,0,5,5,12,,,,,,,,,,,,,,,,,,,j,1,0.2927081671077758,,,,,,,,,,,,,,,,,,,,,,,,,,,,,,,,,,,,101,002,2021_Sep_17_1136,joplin1,2021.2.3,60.250930018062405,
_train_cond.csv,0 0 1 1 1 1 1 1 0 0,4,categoryB,j,,,0,7,7,6,0,6,6,13,,,,,,,,,,,,,,,,,,,j,1,0.31799158290959895,,,,,,,,,,,,,,,,,,,,,,,,,,,,,,,,,,,,101,002,2021_Sep_17_1136,joplin1,2021.2.3,60.250930018062405,
_train_cond.csv,0 0 0 1 1 1 1 0 0 0,6,categoryA,f,,,0,7,7,6,0,7,7,3,,,,,,,,,,,,,,,,,,,j,0,0.4001054160762578,,,,,,,,,,,,,,,,,,,,,,,,,,,,,,,,,,,,101,002,2021_Sep_17_1136,joplin1,2021.2.3,60.250930018062405,
_train_cond.csv,0 1 1 1 1 1 1 1 1 0,2,categoryB,j,,,0,7,7,6,0,8,8,7,,,,,,,,,,,,,,,,,,,f,0,0.42754850001074374,,,,,,,,,,,,,,,,,,,,,,,,,,,,,,,,,,,,101,002,2021_Sep_17_1136,joplin1,2021.2.3,60.250930018062405,
_train_cond.csv,1 1 1 0 1 1 0 1 1 1,2,categoryB,j,,,0,7,7,6,0,9,9,11,,,,,,,,,,,,,,,,,,,j,1,0.3192883331794292,,,,,,,,,,,,,,,,,,,,,,,,,,,,,,,,,,,,101,002,2021_Sep_17_1136,joplin1,2021.2.3,60.250930018062405,
_train_cond.csv,1 0 0 0 0 0 0 0 0 1,8,categoryA,f,,,0,7,7,6,0,10,10,0,,,,,,,,,,,,,,,,,,,f,1,0.5599065839778632,,,,,,,,,,,,,,,,,,,,,,,,,,,,,,,,,,,,101,002,2021_Sep_17_1136,joplin1,2021.2.3,60.250930018062405,
_train_cond.csv,0 0 0 1 0 0 1 0 0 0,8,categoryA,f,,,0,7,7,6,0,11,11,4,,,,,,,,,,,,,,,,,,,j,0,0.33614562498405576,,,,,,,,,,,,,,,,,,,,,,,,,,,,,,,,,,,,101,002,2021_Sep_17_1136,joplin1,2021.2.3,60.250930018062405,
_train_cond.csv,0 1 0 0 0 0 0 0 1 0,8,categoryA,f,,,0,7,7,6,0,12,12,1,,,,,,,,,,,,,,,,,,,f,1,0.3751797080039978,,,,,,,,,,,,,,,,,,,,,,,,,,,,,,,,,,,,101,002,2021_Sep_17_1136,joplin1,2021.2.3,60.250930018062405,
_train_cond.csv,1 0 1 1 1 1 1 1 0 1,2,categoryB,j,,,0,7,7,6,0,13,13,8,,,,,,,,,,,,,,,,,,,f,0,0.35950279189273715,,,,,,,,,,,,,,,,,,,,,,,,,,,,,,,,,,,,101,002,2021_Sep_17_1136,joplin1,2021.2.3,60.250930018062405,
_train_cond.csv,1 0 0 0 0 0 0 0 0 1,8,categoryA,f,,,0,7,7,6,1,0,14,0,,,,,,,,,,,,,,,,,,,j,0,0.3337121671065688,,,,,,,,,,,,,,,,,,,,,,,,,,,,,,,,,,,,101,002,2021_Sep_17_1136,joplin1,2021.2.3,60.250930018062405,
_train_cond.csv,0 0 1 0 1 1 0 1 0 0,6,categoryA,f,,,0,7,7,6,1,1,15,2,,,,,,,,,,,,,,,,,,,f,1,0.42231112509034574,,,,,,,,,,,,,,,,,,,,,,,,,,,,,,,,,,,,101,002,2021_Sep_17_1136,joplin1,2021.2.3,60.250930018062405,
_train_cond.csv,0 0 1 0 0 0 0 1 0 0,8,categoryA,f,,,0,7,7,6,1,2,16,5,,,,,,,,,,,,,,,,,,,j,0,0.45121362479403615,,,,,,,,,,,,,,,,,,,,,,,,,,,,,,,,,,,,101,002,2021_Sep_17_1136,joplin1,2021.2.3,60.250930018062405,
_train_cond.csv,0 1 0 0 0 0 0 0 1 0,8,categoryA,f,,,0,7,7,6,1,3,17,1,,,,,,,,,,,,,,,,,,,f,1,0.35902387485839427,,,,,,,,,,,,,,,,,,,,,,,,,,,,,,,,,,,,101,002,2021_Sep_17_1136,joplin1,2021.2.3,60.250930018062405,
_train_cond.csv,0 0 0 1 1 1 1 0 0 0,6,categoryA,f,,,0,7,7,6,1,4,18,3,,,,,,,,,,,,,,,,,,,f,1,0.525698458077386,,,,,,,,,,,,,,,,,,,,,,,,,,,,,,,,,,,,101,002,2021_Sep_17_1136,joplin1,2021.2.3,60.250930018062405,
_train_cond.csv,1 1 0 1 1 1 1 0 1 1,2,categoryB,j,,,0,7,7,6,1,5,19,12,,,,,,,,,,,,,,,,,,,j,1,0.11207500007003546,,,,,,,,,,,,,,,,,,,,,,,,,,,,,,,,,,,,101,002,2021_Sep_17_1136,joplin1,2021.2.3,60.250930018062405,
_train_cond.csv,1 1 0 0 0 0 0 0 1 1,6,categoryA,f,,,0,7,7,6,1,6,20,6,,,,,,,,,,,,,,,,,,,f,1,0.4167567079421133,,,,,,,,,,,,,,,,,,,,,,,,,,,,,,,,,,,,101,002,2021_Sep_17_1136,joplin1,2021.2.3,60.250930018062405,
_train_cond.csv,1 1 1 0 0 0 0 1 1 1,4,categoryB,j,,,0,7,7,6,1,7,21,10,,,,,,,,,,,,,,,,,,,j,1,0.33377366699278355,,,,,,,,,,,,,,,,,,,,,,,,,,,,,,,,,,,,101,002,2021_Sep_17_1136,joplin1,2021.2.3,60.250930018062405,
_train_cond.csv,1 0 1 1 1 1 1 1 0 1,2,categoryB,j,,,0,7,7,6,1,8,22,8,,,,,,,,,,,,,,,,,,,f,0,0.5344168329611421,,,,,,,,,,,,,,,,,,,,,,,,,,,,,,,,,,,,101,002,2021_Sep_17_1136,joplin1,2021.2.3,60.250930018062405,
_train_cond.csv,0 1 1 1 1 1 1 1 1 0,2,categoryB,j,,,0,7,7,6,1,9,23,7,,,,,,,,,,,,,,,,,,,j,1,0.5201876659411937,,,,,,,,,,,,,,,,,,,,,,,,,,,,,,,,,,,,101,002,2021_Sep_17_1136,joplin1,2021.2.3,60.250930018062405,
_train_cond.csv,0 0 1 1 1 1 1 1 0 0,4,categoryB,j,,,0,7,7,6,1,10,24,13,,,,,,,,,,,,,,,,,,,f,0,0.5362452501431108,,,,,,,,,,,,,,,,,,,,,,,,,,,,,,,,,,,,101,002,2021_Sep_17_1136,joplin1,2021.2.3,60.250930018062405,
_train_cond.csv,1 1 1 0 1 1 0 1 1 1,2,categoryB,j,,,0,7,7,6,1,11,25,11,,,,,,,,,,,,,,,,,,,j,1,0.1999490421731025,,,,,,,,,,,,,,,,,,,,,,,,,,,,,,,,,,,,101,002,2021_Sep_17_1136,joplin1,2021.2.3,60.250930018062405,
_train_cond.csv,1 1 0 1 0 0 1 0 1 1,4,categoryB,j,,,0,7,7,6,1,12,26,9,,,,,,,,,,,,,,,,,,,j,1,0.2770632079336792,,,,,,,,,,,,,,,,,,,,,,,,,,,,,,,,,,,,101,002,2021_Sep_17_1136,joplin1,2021.2.3,60.250930018062405,
_train_cond.csv,0 0 0 1 0 0 1 0 0 0,8,categoryA,f,,,0,7,7,6,1,13,27,4,,,,,,,,,,,,,,,,,,,f,1,0.24790474982000887,,,,,,,,,,,,,,,,,,,,,,,,,,,,,,,,,,,,101,002,2021_Sep_17_1136,joplin1,2021.2.3,60.250930018062405,
_train_cond.csv,0 0 0 1 0 0 1 0 0 0,8,categoryA,f,,,0,7,7,6,2,0,28,4,,,,,,,,,,,,,,,,,,,f,1,0.30852416693232954,,,,,,,,,,,,,,,,,,,,,,,,,,,,,,,,,,,,101,002,2021_Sep_17_1136,joplin1,2021.2.3,60.250930018062405,
_train_cond.csv,0 1 0 0 0 0 0 0 1 0,8,categoryA,f,,,0,7,7,6,2,1,29,1,,,,,,,,,,,,,,,,,,,f,1,0.2848602910526097,,,,,,,,,,,,,,,,,,,,,,,,,,,,,,,,,,,,101,002,2021_Sep_17_1136,joplin1,2021.2.3,60.250930018062405,
_train_cond.csv,1 1 0 0 0 0 0 0 1 1,6,categoryA,f,,,0,7,7,6,2,2,30,6,,,,,,,,,,,,,,,,,,,j,0,0.462103416910395,,,,,,,,,,,,,,,,,,,,,,,,,,,,,,,,,,,,101,002,2021_Sep_17_1136,joplin1,2021.2.3,60.250930018062405,
_train_cond.csv,0 0 1 1 1 1 1 1 0 0,4,categoryB,j,,,0,7,7,6,2,3,31,13,,,,,,,,,,,,,,,,,,,j,1,0.4804020419251174,,,,,,,,,,,,,,,,,,,,,,,,,,,,,,,,,,,,101,002,2021_Sep_17_1136,joplin1,2021.2.3,60.250930018062405,
_train_cond.csv,1 1 1 0 1 1 0 1 1 1,2,categoryB,j,,,0,7,7,6,2,4,32,11,,,,,,,,,,,,,,,,,,,j,1,0.4549404999706894,,,,,,,,,,,,,,,,,,,,,,,,,,,,,,,,,,,,101,002,2021_Sep_17_1136,joplin1,2021.2.3,60.250930018062405,
_train_cond.csv,1 1 0 1 0 0 1 0 1 1,4,categoryB,j,,,0,7,7,6,2,5,33,9,,,,,,,,,,,,,,,,,,,f,0,0.4025002080015838,,,,,,,,,,,,,,,,,,,,,,,,,,,,,,,,,,,,101,002,2021_Sep_17_1136,joplin1,2021.2.3,60.250930018062405,
_train_cond.csv,1 1 1 0 0 0 0 1 1 1,4,categoryB,j,,,0,7,7,6,2,6,34,10,,,,,,,,,,,,,,,,,,,j,1,0.35155283310450613,,,,,,,,,,,,,,,,,,,,,,,,,,,,,,,,,,,,101,002,2021_Sep_17_1136,joplin1,2021.2.3,60.250930018062405,
_train_cond.csv,1 0 0 0 0 0 0 0 0 1,8,categoryA,f,,,0,7,7,6,2,7,35,0,,,,,,,,,,,,,,,,,,,j,0,0.6308565840590745,,,,,,,,,,,,,,,,,,,,,,,,,,,,,,,,,,,,101,002,2021_Sep_17_1136,joplin1,2021.2.3,60.250930018062405,
_train_cond.csv,0 1 1 1 1 1 1 1 1 0,2,categoryB,j,,,0,7,7,6,2,8,36,7,,,,,,,,,,,,,,,,,,,j,1,0.6105552499648184,,,,,,,,,,,,,,,,,,,,,,,,,,,,,,,,,,,,101,002,2021_Sep_17_1136,joplin1,2021.2.3,60.250930018062405,
_train_cond.csv,0 0 0 1 1 1 1 0 0 0,6,categoryA,f,,,0,7,7,6,2,9,37,3,,,,,,,,,,,,,,,,,,,f,1,0.6554362501483411,,,,,,,,,,,,,,,,,,,,,,,,,,,,,,,,,,,,101,002,2021_Sep_17_1136,joplin1,2021.2.3,60.250930018062405,
_train_cond.csv,0 0 1 0 0 0 0 1 0 0,8,categoryA,f,,,0,7,7,6,2,10,38,5,,,,,,,,,,,,,,,,,,,j,0,0.5141803331207484,,,,,,,,,,,,,,,,,,,,,,,,,,,,,,,,,,,,101,002,2021_Sep_17_1136,joplin1,2021.2.3,60.250930018062405,
_train_cond.csv,1 1 0 1 1 1 1 0 1 1,2,categoryB,j,,,0,7,7,6,2,11,39,12,,,,,,,,,,,,,,,,,,,f,0,0.5397472910117358,,,,,,,,,,,,,,,,,,,,,,,,,,,,,,,,,,,,101,002,2021_Sep_17_1136,joplin1,2021.2.3,60.250930018062405,
_train_cond.csv,0 0 1 0 1 1 0 1 0 0,6,categoryA,f,,,0,7,7,6,2,12,40,2,,,,,,,,,,,,,,,,,,,j,0,0.435072333086282,,,,,,,,,,,,,,,,,,,,,,,,,,,,,,,,,,,,101,002,2021_Sep_17_1136,joplin1,2021.2.3,60.250930018062405,
_train_cond.csv,1 0 1 1 1 1 1 1 0 1,2,categoryB,j,,,0,7,7,6,2,13,41,8,,,,,,,,,,,,,,,,,,,f,0,0.4166684579104185,,,,,,,,,,,,,,,,,,,,,,,,,,,,,,,,,,,,101,002,2021_Sep_17_1136,joplin1,2021.2.3,60.250930018062405,
_train_cond.csv,,,,,,,0,7,7,6,,,,,,,,,,,,,,,,,,,,,,,,,,space,1.957404667045921,,,,,,,,,,,,,,,,,,,,,,,,,,,,,,,,,,101,002,2021_Sep_17_1136,joplin1,2021.2.3,60.250930018062405,
,,,,,,,,,,,,,,,,,,,,,,,,,,,,,,,,,,,,,,q,15.415836958913133,,,,,,,,,,,,,,,,,,,,,,,,,,,,,,,,101,002,2021_Sep_17_1136,joplin1,2021.2.3,60.250930018062405,
,,,,,,,,,,,,,,,,,,,,,,,,,,,,,,,,,,,,,,,,j,10.26872591697611,,,,,,,,,,,,,,,,,,,,,,,,,,,,,,101,002,2021_Sep_17_1136,joplin1,2021.2.3,60.250930018062405,
,,,,,,,,,,,,,,,,,,,,,,,,,,,,,,,,,,,,,,,,,,space,5.99368470790796,,,,,,,,,,,,,,,,,,,,,,,,,,,,101,002,2021_Sep_17_1136,joplin1,2021.2.3,60.250930018062405,
,,,,,,,,,,,,,,,,,,,,,,,,,,,,,,,,,,,,,,,,,,,,space,6.2087124169338495,,,,,,,,,,,,,,,,,,,,,,,,,,101,002,2021_Sep_17_1136,joplin1,2021.2.3,60.250930018062405,
,1 1 1 0 1 1 1 1 0 1,2,categoryB,j,genfile2.csv,0,,,,,,,,,0,0,0,1,0,0,0,50,,,,,,,,,,,,,,,,,,,,,,,,j,1,0.5570064159110188,,,,,,,,,,,,,,,,,,,,,,,101,002,2021_Sep_17_1136,joplin1,2021.2.3,60.250930018062405,
,1 1 1 1 0 1 1 1 1 1,1,categoryB,j,genfile2.csv,0,,,,,,,,,0,0,0,1,0,1,1,54,,,,,,,,,,,,,,,,,,,,,,,,j,1,0.4806561251170933,,,,,,,,,,,,,,,,,,,,,,,101,002,2021_Sep_17_1136,joplin1,2021.2.3,60.250930018062405,
,0 0 1 1 0 1 1 1 0 1,4,categoryB,j,genfile2.csv,0,,,,,,,,,0,0,0,1,0,2,2,37,,,,,,,,,,,,,,,,,,,,,,,,j,1,0.5920074169989675,,,,,,,,,,,,,,,,,,,,,,,101,002,2021_Sep_17_1136,joplin1,2021.2.3,60.250930018062405,
,0 0 1 1 1 1 1 1 0 0,4,categoryB,j,genfile2.csv,1,,,,,,,,,0,0,0,1,0,3,3,15,,,,,,,,,,,,,,,,,,,,,,,,f,0,0.7355102910660207,,,,,,,,,,,,,,,,,,,,,,,101,002,2021_Sep_17_1136,joplin1,2021.2.3,60.250930018062405,
,1 1 1 1 1 1 0 1 1 1,1,categoryB,j,genfile2.csv,0,,,,,,,,,0,0,0,1,0,4,4,52,,,,,,,,,,,,,,,,,,,,,,,,j,1,0.7671819999814034,,,,,,,,,,,,,,,,,,,,,,,101,002,2021_Sep_17_1136,joplin1,2021.2.3,60.250930018062405,
,0 1 0 0 1 0 0 1 0 0,7,categoryA,f,genfile2.csv,0,,,,,,,,,0,0,0,1,0,5,5,30,,,,,,,,,,,,,,,,,,,,,,,,f,1,0.5667805830016732,,,,,,,,,,,,,,,,,,,,,,,101,002,2021_Sep_17_1136,joplin1,2021.2.3,60.250930018062405,
,1 0 0 1 0 0 0 0 0 0,8,categoryA,f,genfile2.csv,0,,,,,,,,,0,0,0,1,0,6,6,25,,,,,,,,,,,,,,,,,,,,,,,,f,1,0.7727543751243502,,,,,,,,,,,,,,,,,,,,,,,101,002,2021_Sep_17_1136,joplin1,2021.2.3,60.250930018062405,
,0 0 0 1 0 0 1 0 0 0,8,categoryA,f,genfile2.csv,1,,,,,,,,,0,0,0,1,0,7,7,6,,,,,,,,,,,,,,,,,,,,,,,,f,1,0.6992016669828445,,,,,,,,,,,,,,,,,,,,,,,101,002,2021_Sep_17_1136,joplin1,2021.2.3,60.250930018062405,
,0 0 1 1 0 1 0 0 0 0,7,categoryA,f,genfile2.csv,0,,,,,,,,,0,0,0,1,0,8,8,27,,,,,,,,,,,,,,,,,,,,,,,,j,0,0.6843283751513809,,,,,,,,,,,,,,,,,,,,,,,101,002,2021_Sep_17_1136,joplin1,2021.2.3,60.250930018062405,
,0 0 0 0 0 1 0 1 0 0,8,categoryA,f,genfile2.csv,0,,,,,,,,,0,0,0,1,0,9,9,24,,,,,,,,,,,,,,,,,,,,,,,,f,1,0.8592719589360058,,,,,,,,,,,,,,,,,,,,,,,101,002,2021_Sep_17_1136,joplin1,2021.2.3,60.250930018062405,
,1 1 0 0 1 1 0 1 1 1,3,categoryB,j,genfile2.csv,0,,,,,,,,,0,0,0,1,0,10,10,42,,,,,,,,,,,,,,,,,,,,,,,,f,0,0.6500493329949677,,,,,,,,,,,,,,,,,,,,,,,101,002,2021_Sep_17_1136,joplin1,2021.2.3,60.250930018062405,
,1 1 0 1 0 0 1 0 1 1,4,categoryB,j,genfile2.csv,1,,,,,,,,,0,0,0,1,0,11,11,11,,,,,,,,,,,,,,,,,,,,,,,,f,0,0.7328187499660999,,,,,,,,,,,,,,,,,,,,,,,101,002,2021_Sep_17_1136,joplin1,2021.2.3,60.250930018062405,
,1 1 1 1 1 1 1 0 0 1,2,categoryB,j,genfile2.csv,0,,,,,,,,,0,0,0,1,0,12,12,49,,,,,,,,,,,,,,,,,,,,,,,,j,1,0.9965457918588072,,,,,,,,,,,,,,,,,,,,,,,101,002,2021_Sep_17_1136,joplin1,2021.2.3,60.250930018062405,
,1 1 0 0 0 0 0 0 1 1,6,categoryA,f,genfile2.csv,1,,,,,,,,,0,0,0,1,0,13,13,8,,,,,,,,,,,,,,,,,,,,,,,,j,0,0.650793083012104,,,,,,,,,,,,,,,,,,,,,,,101,002,2021_Sep_17_1136,joplin1,2021.2.3,60.250930018062405,
,0 0 1 0 0 0 0 1 0 0,8,categoryA,f,genfile2.csv,1,,,,,,,,,0,0,0,1,0,14,14,7,,,,,,,,,,,,,,,,,,,,,,,,j,0,0.614729416789487,,,,,,,,,,,,,,,,,,,,,,,101,002,2021_Sep_17_1136,joplin1,2021.2.3,60.250930018062405,
,0 1 1 1 1 0 0 0 1 1,4,categoryB,j,genfile2.csv,0,,,,,,,,,0,0,0,1,0,15,15,38,,,,,,,,,,,,,,,,,,,,,,,,j,1,0.4015713329426944,,,,,,,,,,,,,,,,,,,,,,,101,002,2021_Sep_17_1136,joplin1,2021.2.3,60.250930018062405,
,1 1 0 1 1 0 0 1 1 0,4,categoryB,j,genfile2.csv,0,,,,,,,,,0,0,0,1,0,16,16,40,,,,,,,,,,,,,,,,,,,,,,,,j,1,0.48479241714812815,,,,,,,,,,,,,,,,,,,,,,,101,002,2021_Sep_17_1136,joplin1,2021.2.3,60.250930018062405,
,0 0 1 0 1 1 1 1 1 0,4,categoryB,j,genfile2.csv,0,,,,,,,,,0,0,0,1,0,17,17,36,,,,,,,,,,,,,,,,,,,,,,,,f,0,0.46785875014029443,,,,,,,,,,,,,,,,,,,,,,,101,002,2021_Sep_17_1136,joplin1,2021.2.3,60.250930018062405,
,1 1 0 1 1 1 1 0 1 1,2,categoryB,j,genfile2.csv,1,,,,,,,,,0,0,0,1,0,18,18,14,,,,,,,,,,,,,,,,,,,,,,,,f,0,0.9516747919842601,,,,,,,,,,,,,,,,,,,,,,,101,002,2021_Sep_17_1136,joplin1,2021.2.3,60.250930018062405,
,1 1 1 0 0 0 0 1 1 1,4,categoryB,j,genfile2.csv,1,,,,,,,,,0,0,0,1,0,19,19,12,,,,,,,,,,,,,,,,,,,,,,,,j,1,0.5033684999216348,,,,,,,,,,,,,,,,,,,,,,,101,002,2021_Sep_17_1136,joplin1,2021.2.3,60.250930018062405,
,1 1 0 1 1 1 1 1 1 1,1,categoryB,j,genfile2.csv,0,,,,,,,,,0,0,0,1,0,20,20,53,,,,,,,,,,,,,,,,,,,,,,,,j,1,0.7749837921001017,,,,,,,,,,,,,,,,,,,,,,,101,002,2021_Sep_17_1136,joplin1,2021.2.3,60.250930018062405,
,0 1 0 0 0 0 0 0 1 0,8,categoryA,f,genfile2.csv,1,,,,,,,,,0,0,0,1,0,21,21,3,,,,,,,,,,,,,,,,,,,,,,,,f,1,0.7505444588605314,,,,,,,,,,,,,,,,,,,,,,,101,002,2021_Sep_17_1136,joplin1,2021.2.3,60.250930018062405,
,1 1 1 1 0 1 1 1 1 0,2,categoryB,j,genfile2.csv,0,,,,,,,,,0,0,0,1,0,22,22,46,,,,,,,,,,,,,,,,,,,,,,,,j,1,0.7817626250907779,,,,,,,,,,,,,,,,,,,,,,,101,002,2021_Sep_17_1136,joplin1,2021.2.3,60.250930018062405,
,1 1 0 1 1 1 1 1 0 1,2,categoryB,j,genfile2.csv,0,,,,,,,,,0,0,0,1,0,23,23,47,,,,,,,,,,,,,,,,,,,,,,,,f,0,0.5121745839715004,,,,,,,,,,,,,,,,,,,,,,,101,002,2021_Sep_17_1136,joplin1,2021.2.3,60.250930018062405,
,0 1 1 0 1 1 1 1 0 1,3,categoryB,j,genfile2.csv,0,,,,,,,,,0,0,0,1,0,24,24,44,,,,,,,,,,,,,,,,,,,,,,,,j,1,0.6591082920785993,,,,,,,,,,,,,,,,,,,,,,,101,002,2021_Sep_17_1136,joplin1,2021.2.3,60.250930018062405,
,0 1 1 1 1 1 1 1 1 0,2,categoryB,j,genfile2.csv,1,,,,,,,,,0,0,0,1,0,25,25,9,,,,,,,,,,,,,,,,,,,,,,,,f,0,0.759425374912098,,,,,,,,,,,,,,,,,,,,,,,101,002,2021_Sep_17_1136,joplin1,2021.2.3,60.250930018062405,
,1 1 0 0 1 0 0 0 0 1,6,categoryA,f,genfile2.csv,0,,,,,,,,,0,0,0,1,0,26,26,32,,,,,,,,,,,,,,,,,,,,,,,,f,1,0.3774745410773903,,,,,,,,,,,,,,,,,,,,,,,101,002,2021_Sep_17_1136,joplin1,2021.2.3,60.250930018062405,
,1 1 1 1 1 1 1 0 1 1,1,categoryB,j,genfile2.csv,0,,,,,,,,,0,0,0,1,0,27,27,55,,,,,,,,,,,,,,,,,,,,,,,,j,1,0.4277656669728458,,,,,,,,,,,,,,,,,,,,,,,101,002,2021_Sep_17_1136,joplin1,2021.2.3,60.250930018062405,
,1 1 1 0 1 1 1 1 1 1,1,categoryB,j,genfile2.csv,0,,,,,,,,,0,0,0,1,0,28,28,51,,,,,,,,,,,,,,,,,,,,,,,,j,1,0.782527957810089,,,,,,,,,,,,,,,,,,,,,,,101,002,2021_Sep_17_1136,joplin1,2021.2.3,60.250930018062405,
,0 0 0 1 1 0 0 0 0 1,7,categoryA,f,genfile2.csv,0,,,,,,,,,0,0,0,1,0,29,29,29,,,,,,,,,,,,,,,,,,,,,,,,f,1,0.45471945800818503,,,,,,,,,,,,,,,,,,,,,,,101,002,2021_Sep_17_1136,joplin1,2021.2.3,60.250930018062405,
,0 0 0 1 1 0 0 0 0 0,8,categoryA,f,genfile2.csv,0,,,,,,,,,0,0,0,1,0,30,30,23,,,,,,,,,,,,,,,,,,,,,,,,f,1,0.46468366612680256,,,,,,,,,,,,,,,,,,,,,,,101,002,2021_Sep_17_1136,joplin1,2021.2.3,60.250930018062405,
,0 0 1 0 1 1 0 1 0 0,6,categoryA,f,genfile2.csv,1,,,,,,,,,0,0,0,1,0,31,31,4,,,,,,,,,,,,,,,,,,,,,,,,f,1,0.6364261249545962,,,,,,,,,,,,,,,,,,,,,,,101,002,2021_Sep_17_1136,joplin1,2021.2.3,60.250930018062405,
,1 0 1 1 1 1 1 1 0 1,2,categoryB,j,genfile2.csv,1,,,,,,,,,0,0,0,1,0,32,32,10,,,,,,,,,,,,,,,,,,,,,,,,j,1,0.7360882079228759,,,,,,,,,,,,,,,,,,,,,,,101,002,2021_Sep_17_1136,joplin1,2021.2.3,60.250930018062405,
,0 1 1 1 1 0 0 1 1 1,3,categoryB,j,genfile2.csv,0,,,,,,,,,0,0,0,1,0,33,33,41,,,,,,,,,,,,,,,,,,,,,,,,f,0,0.8139543749857694,,,,,,,,,,,,,,,,,,,,,,,101,002,2021_Sep_17_1136,joplin1,2021.2.3,60.250930018062405,
,0 0 0 0 0 0 1 0 1 1,7,categoryA,f,genfile2.csv,0,,,,,,,,,0,0,0,1,0,34,34,28,,,,,,,,,,,,,,,,,,,,,,,,f,1,0.057719541946426034,,,,,,,,,,,,,,,,,,,,,,,101,002,2021_Sep_17_1136,joplin1,2021.2.3,60.250930018062405,
,0 0 0 0 0 0 0 1 0 0,9,categoryA,f,genfile2.csv,0,,,,,,,,,0,0,0,1,0,35,35,18,,,,,,,,,,,,,,,,,,,,,,,,f,1,0.21144925011321902,,,,,,,,,,,,,,,,,,,,,,,101,002,2021_Sep_17_1136,joplin1,2021.2.3,60.250930018062405,
,1 1 0 1 1 0 1 1 1 0,3,categoryB,j,genfile2.csv,0,,,,,,,,,0,0,0,1,0,36,36,45,,,,,,,,,,,,,,,,,,,,,,,,f,0,0.6079466668888927,,,,,,,,,,,,,,,,,,,,,,,101,002,2021_Sep_17_1136,joplin1,2021.2.3,60.250930018062405,
,0 0 1 1 0 0 0 0 0 0,8,categoryA,f,genfile2.csv,0,,,,,,,,,0,0,0,1,0,37,37,22,,,,,,,,,,,,,,,,,,,,,,,,f,1,0.4956941658165306,,,,,,,,,,,,,,,,,,,,,,,101,002,2021_Sep_17_1136,joplin1,2021.2.3,60.250930018062405,
,1 0 0 0 0 1 0 0 0 0,8,categoryA,f,genfile2.csv,0,,,,,,,,,0,0,0,1,0,38,38,21,,,,,,,,,,,,,,,,,,,,,,,,f,1,0.8152970420196652,,,,,,,,,,,,,,,,,,,,,,,101,002,2021_Sep_17_1136,joplin1,2021.2.3,60.250930018062405,
,1 1 0 0 0 0 0 1 0 1,6,categoryA,f,genfile2.csv,0,,,,,,,,,0,0,0,1,0,39,39,33,,,,,,,,,,,,,,,,,,,,,,,,f,1,0.41828608396463096,,,,,,,,,,,,,,,,,,,,,,,101,002,2021_Sep_17_1136,joplin1,2021.2.3,60.250930018062405,
,1 1 0 0 1 0 1 1 1 1,3,categoryB,j,genfile2.csv,0,,,,,,,,,0,0,0,1,0,40,40,43,,,,,,,,,,,,,,,,,,,,,,,,f,0,0.7655602919403464,,,,,,,,,,,,,,,,,,,,,,,101,002,2021_Sep_17_1136,joplin1,2021.2.3,60.250930018062405,
,0 0 0 1 0 0 0 0 0 0,9,categoryA,f,genfile2.csv,0,,,,,,,,,0,0,0,1,0,41,41,19,,,,,,,,,,,,,,,,,,,,,,,,f,1,0.29787541716359556,,,,,,,,,,,,,,,,,,,,,,,101,002,2021_Sep_17_1136,joplin1,2021.2.3,60.250930018062405,
,1 1 1 1 1 0 1 1 1 0,2,categoryB,j,genfile2.csv,0,,,,,,,,,0,0,0,1,0,42,42,48,,,,,,,,,,,,,,,,,,,,,,,,j,1,0.2814806660171598,,,,,,,,,,,,,,,,,,,,,,,101,002,2021_Sep_17_1136,joplin1,2021.2.3,60.250930018062405,
,1 0 0 0 0 0 0 0 0 0,9,categoryA,f,genfile2.csv,0,,,,,,,,,0,0,0,1,0,43,43,16,,,,,,,,,,,,,,,,,,,,,,,,f,1,0.40924883307889104,,,,,,,,,,,,,,,,,,,,,,,101,002,2021_Sep_17_1136,joplin1,2021.2.3,60.250930018062405,
,0 0 0 1 1 1 1 0 0 0,6,categoryA,f,genfile2.csv,1,,,,,,,,,0,0,0,1,0,44,44,5,,,,,,,,,,,,,,,,,,,,,,,,f,1,0.42313775001093745,,,,,,,,,,,,,,,,,,,,,,,101,002,2021_Sep_17_1136,joplin1,2021.2.3,60.250930018062405,
,0 1 0 1 0 0 1 0 1 0,6,categoryA,f,genfile2.csv,0,,,,,,,,,0,0,0,1,0,45,45,35,,,,,,,,,,,,,,,,,,,,,,,,j,0,0.40863195806741714,,,,,,,,,,,,,,,,,,,,,,,101,002,2021_Sep_17_1136,joplin1,2021.2.3,60.250930018062405,
,1 1 1 1 1 1 1 1 1 1,0,categoryB,j,genfile2.csv,0,,,,,,,,,0,0,0,1,0,46,46,1,,,,,,,,,,,,,,,,,,,,,,,,j,1,0.3161444580182433,,,,,,,,,,,,,,,,,,,,,,,101,002,2021_Sep_17_1136,joplin1,2021.2.3,60.250930018062405,
,1 1 1 1 1 0 0 0 0 1,4,categoryB,j,genfile2.csv,0,,,,,,,,,0,0,0,1,0,47,47,39,,,,,,,,,,,,,,,,,,,,,,,,j,1,0.7260633748956025,,,,,,,,,,,,,,,,,,,,,,,101,002,2021_Sep_17_1136,joplin1,2021.2.3,60.250930018062405,
,0 0 0 0 0 0 1 0 0 0,9,categoryA,f,genfile2.csv,0,,,,,,,,,0,0,0,1,0,48,48,17,,,,,,,,,,,,,,,,,,,,,,,,f,1,0.42073229094967246,,,,,,,,,,,,,,,,,,,,,,,101,002,2021_Sep_17_1136,joplin1,2021.2.3,60.250930018062405,
,0 0 0 0 0 0 0 0 0 0,10,categoryA,f,genfile2.csv,0,,,,,,,,,0,0,0,1,0,49,49,0,,,,,,,,,,,,,,,,,,,,,,,,f,1,0.3190322918817401,,,,,,,,,,,,,,,,,,,,,,,101,002,2021_Sep_17_1136,joplin1,2021.2.3,60.250930018062405,
,1 0 0 0 0 0 0 0 0 1,8,categoryA,f,genfile2.csv,1,,,,,,,,,0,0,0,1,0,50,50,2,,,,,,,,,,,,,,,,,,,,,,,,f,1,0.168805459048599,,,,,,,,,,,,,,,,,,,,,,,101,002,2021_Sep_17_1136,joplin1,2021.2.3,60.250930018062405,
,0 0 1 0 0 0 0 0 0 0,9,categoryA,f,genfile2.csv,0,,,,,,,,,0,0,0,1,0,51,51,20,,,,,,,,,,,,,,,,,,,,,,,,f,1,0.35023574996739626,,,,,,,,,,,,,,,,,,,,,,,101,002,2021_Sep_17_1136,joplin1,2021.2.3,60.250930018062405,
,0 1 0 0 1 1 0 1 0 0,6,categoryA,f,genfile2.csv,0,,,,,,,,,0,0,0,1,0,52,52,31,,,,,,,,,,,,,,,,,,,,,,,,f,1,0.29274112498387694,,,,,,,,,,,,,,,,,,,,,,,101,002,2021_Sep_17_1136,joplin1,2021.2.3,60.250930018062405,
,1 1 1 0 1 1 0 1 1 1,2,categoryB,j,genfile2.csv,1,,,,,,,,,0,0,0,1,0,53,53,13,,,,,,,,,,,,,,,,,,,,,,,,j,1,0.28646129206754267,,,,,,,,,,,,,,,,,,,,,,,101,002,2021_Sep_17_1136,joplin1,2021.2.3,60.250930018062405,
,0 0 0 0 0 1 1 0 0 1,7,categoryA,f,genfile2.csv,0,,,,,,,,,0,0,0,1,0,54,54,26,,,,,,,,,,,,,,,,,,,,,,,,f,1,0.3657152911182493,,,,,,,,,,,,,,,,,,,,,,,101,002,2021_Sep_17_1136,joplin1,2021.2.3,60.250930018062405,
,1 1 0 0 0 0 1 0 1 0,6,categoryA,f,genfile2.csv,0,,,,,,,,,0,0,0,1,0,55,55,34,,,,,,,,,,,,,,,,,,,,,,,,f,1,0.5794029580429196,,,,,,,,,,,,,,,,,,,,,,,101,002,2021_Sep_17_1136,joplin1,2021.2.3,60.250930018062405,
,,,,,genfile2.csv,,,,,,,,,,0,0,0,1,,,,,,,,,,,,,,,,,,space,1.0909612919203937,,,,,,,,,,,,,,,,,,,,,,,,,,,,,,,,,,101,002,2021_Sep_17_1136,joplin1,2021.2.3,60.250930018062405,
,0 1 1 1 1 1 1 1 0 1,2,categoryB,j,genfile1.csv,0,,,,,,,,,0,1,1,0,0,0,0,49,,,,,,,,,,,,,,,,,,,,,,,,j,1,0.3450311250053346,,,,,,,,,,,,,,,,,,,,,,,101,002,2021_Sep_17_1136,joplin1,2021.2.3,60.250930018062405,
,0 0 0 1 0 0 1 0 0 0,8,categoryA,f,genfile1.csv,1,,,,,,,,,0,1,1,0,0,1,1,6,,,,,,,,,,,,,,,,,,,,,,,,f,1,0.22418533288873732,,,,,,,,,,,,,,,,,,,,,,,101,002,2021_Sep_17_1136,joplin1,2021.2.3,60.250930018062405,
,1 1 1 0 1 0 1 1 1 1,2,categoryB,j,genfile1.csv,0,,,,,,,,,0,1,1,0,0,2,2,48,,,,,,,,,,,,,,,,,,,,,,,,j,1,0.2657728330232203,,,,,,,,,,,,,,,,,,,,,,,101,002,2021_Sep_17_1136,joplin1,2021.2.3,60.250930018062405,
,0 1 0 0 0 0 0 0 1 0,8,categoryA,f,genfile1.csv,1,,,,,,,,,0,1,1,0,0,3,3,3,,,,,,,,,,,,,,,,,,,,,,,,j,0,0.6537667911034077,,,,,,,,,,,,,,,,,,,,,,,101,002,2021_Sep_17_1136,joplin1,2021.2.3,60.250930018062405,
,1 1 0 1 0 1 1 1 1 0,3,categoryB,j,genfile1.csv,0,,,,,,,,,0,1,1,0,0,4,4,42,,,,,,,,,,,,,,,,,,,,,,,,j,1,0.3160352080594748,,,,,,,,,,,,,,,,,,,,,,,101,002,2021_Sep_17_1136,joplin1,2021.2.3,60.250930018062405,
,1 0 0 0 1 0 1 0 1 0,6,categoryA,f,genfile1.csv,0,,,,,,,,,0,1,1,0,0,5,5,31,,,,,,,,,,,,,,,,,,,,,,,,j,0,0.30486475001089275,,,,,,,,,,,,,,,,,,,,,,,101,002,2021_Sep_17_1136,joplin1,2021.2.3,60.250930018062405,
,1 1 1 0 1 1 0 1 1 0,3,categoryB,j,genfile1.csv,0,,,,,,,,,0,1,1,0,0,6,6,44,,,,,,,,,,,,,,,,,,,,,,,,j,1,0.2826210001949221,,,,,,,,,,,,,,,,,,,,,,,101,002,2021_Sep_17_1136,joplin1,2021.2.3,60.250930018062405,
,0 1 1 1 0 1 0 0 0 0,6,categoryA,f,genfile1.csv,0,,,,,,,,,0,1,1,0,0,7,7,32,,,,,,,,,,,,,,,,,,,,,,,,f,1,0.3773011250887066,,,,,,,,,,,,,,,,,,,,,,,101,002,2021_Sep_17_1136,joplin1,2021.2.3,60.250930018062405,
,1 0 0 0 0 0 1 1 0 0,7,categoryA,f,genfile1.csv,0,,,,,,,,,0,1,1,0,0,8,8,27,,,,,,,,,,,,,,,,,,,,,,,,f,1,0.1662718749139458,,,,,,,,,,,,,,,,,,,,,,,101,002,2021_Sep_17_1136,joplin1,2021.2.3,60.250930018062405,
,0 1 1 0 1 1 0 0 1 1,4,categoryB,j,genfile1.csv,0,,,,,,,,,0,1,1,0,0,9,9,38,,,,,,,,,,,,,,,,,,,,,,,,f,0,0.24133666697889566,,,,,,,,,,,,,,,,,,,,,,,101,002,2021_Sep_17_1136,joplin1,2021.2.3,60.250930018062405,
,1 1 1 1 1 1 1 1 0 1,1,categoryB,j,genfile1.csv,0,,,,,,,,,0,1,1,0,0,10,10,53,,,,,,,,,,,,,,,,,,,,,,,,f,0,0.2833226250950247,,,,,,,,,,,,,,,,,,,,,,,101,002,2021_Sep_17_1136,joplin1,2021.2.3,60.250930018062405,
,0 1 0 1 0 1 0 1 0 0,6,categoryA,f,genfile1.csv,0,,,,,,,,,0,1,1,0,0,11,11,35,,,,,,,,,,,,,,,,,,,,,,,,f,1,0.22819112497381866,,,,,,,,,,,,,,,,,,,,,,,101,002,2021_Sep_17_1136,joplin1,2021.2.3,60.250930018062405,
,1 1 1 1 1 1 1 1 1 1,0,categoryB,j,genfile1.csv,0,,,,,,,,,0,1,1,0,0,12,12,1,,,,,,,,,,,,,,,,,,,,,,,,j,1,0.19995104102417827,,,,,,,,,,,,,,,,,,,,,,,101,002,2021_Sep_17_1136,joplin1,2021.2.3,60.250930018062405,
,0 0 0 0 0 0 0 0 0 0,10,categoryA,f,genfile1.csv,0,,,,,,,,,0,1,1,0,0,13,13,0,,,,,,,,,,,,,,,,,,,,,,,,f,1,0.5580879589542747,,,,,,,,,,,,,,,,,,,,,,,101,002,2021_Sep_17_1136,joplin1,2021.2.3,60.250930018062405,
,1 0 1 1 1 1 0 1 1 1,2,categoryB,j,genfile1.csv,0,,,,,,,,,0,1,1,0,0,14,14,50,,,,,,,,,,,,,,,,,,,,,,,,j,1,0.2748261250089854,,,,,,,,,,,,,,,,,,,,,,,101,002,2021_Sep_17_1136,joplin1,2021.2.3,60.250930018062405,
,0 1 1 1 1 1 0 1 1 0,3,categoryB,j,genfile1.csv,0,,,,,,,,,0,1,1,0,0,15,15,41,,,,,,,,,,,,,,,,,,,,,,,,j,1,0.4629824170842767,,,,,,,,,,,,,,,,,,,,,,,101,002,2021_Sep_17_1136,joplin1,2021.2.3,60.250930018062405,
,0 0 1 1 1 1 1 1 1 1,2,categoryB,j,genfile1.csv,0,,,,,,,,,0,1,1,0,0,16,16,47,,,,,,,,,,,,,,,,,,,,,,,,j,1,0.2725517500657588,,,,,,,,,,,,,,,,,,,,,,,101,002,2021_Sep_17_1136,joplin1,2021.2.3,60.250930018062405,
,1 1 0 0 1 0 0 0 0 0,7,categoryA,f,genfile1.csv,0,,,,,,,,,0,1,1,0,0,17,17,28,,,,,,,,,,,,,,,,,,,,,,,,f,1,0.2813285000156611,,,,,,,,,,,,,,,,,,,,,,,101,002,2021_Sep_17_1136,joplin1,2021.2.3,60.250930018062405,
,0 1 0 0 0 0 0 0 0 0,9,categoryA,f,genfile1.csv,0,,,,,,,,,0,1,1,0,0,18,18,16,,,,,,,,,,,,,,,,,,,,,,,,f,1,0.24759741686284542,,,,,,,,,,,,,,,,,,,,,,,101,002,2021_Sep_17_1136,joplin1,2021.2.3,60.250930018062405,
,0 0 0 0 1 0 0 0 0 0,9,categoryA,f,genfile1.csv,0,,,,,,,,,0,1,1,0,0,19,19,20,,,,,,,,,,,,,,,,,,,,,,,,f,1,0.11347054108045995,,,,,,,,,,,,,,,,,,,,,,,101,002,2021_Sep_17_1136,joplin1,2021.2.3,60.250930018062405,
,0 0 1 0 0 1 0 0 0 0,8,categoryA,f,genfile1.csv,0,,,,,,,,,0,1,1,0,0,20,20,22,,,,,,,,,,,,,,,,,,,,,,,,f,1,0.35248645790852606,,,,,,,,,,,,,,,,,,,,,,,101,002,2021_Sep_17_1136,joplin1,2021.2.3,60.250930018062405,
,1 0 1 1 1 1 1 1 1 0,2,categoryB,j,genfile1.csv,0,,,,,,,,,0,1,1,0,0,21,21,46,,,,,,,,,,,,,,,,,,,,,,,,j,1,0.29140379186719656,,,,,,,,,,,,,,,,,,,,,,,101,002,2021_Sep_17_1136,joplin1,2021.2.3,60.250930018062405,
,0 0 0 1 1 1 1 0 0 0,6,categoryA,f,genfile1.csv,1,,,,,,,,,0,1,1,0,0,22,22,5,,,,,,,,,,,,,,,,,,,,,,,,f,1,0.3500009172130376,,,,,,,,,,,,,,,,,,,,,,,101,002,2021_Sep_17_1136,joplin1,2021.2.3,60.250930018062405,
,1 0 1 1 0 0 0 1 0 0,6,categoryA,f,genfile1.csv,0,,,,,,,,,0,1,1,0,0,23,23,33,,,,,,,,,,,,,,,,,,,,,,,,f,1,0.5069119578693062,,,,,,,,,,,,,,,,,,,,,,,101,002,2021_Sep_17_1136,joplin1,2021.2.3,60.250930018062405,
,0 0 1 0 1 1 0 1 0 0,6,categoryA,f,genfile1.csv,1,,,,,,,,,0,1,1,0,0,24,24,4,,,,,,,,,,,,,,,,,,,,,,,,f,1,0.4757072499487549,,,,,,,,,,,,,,,,,,,,,,,101,002,2021_Sep_17_1136,joplin1,2021.2.3,60.250930018062405,
,1 1 1 0 1 1 0 1 1 1,2,categoryB,j,genfile1.csv,1,,,,,,,,,0,1,1,0,0,25,25,13,,,,,,,,,,,,,,,,,,,,,,,,j,1,0.32646266580559313,,,,,,,,,,,,,,,,,,,,,,,101,002,2021_Sep_17_1136,joplin1,2021.2.3,60.250930018062405,
,1 0 0 0 0 0 0 0 0 1,8,categoryA,f,genfile1.csv,1,,,,,,,,,0,1,1,0,0,26,26,2,,,,,,,,,,,,,,,,,,,,,,,,f,1,0.6315870839171112,,,,,,,,,,,,,,,,,,,,,,,101,002,2021_Sep_17_1136,joplin1,2021.2.3,60.250930018062405,
,0 0 0 0 0 0 0 0 1 0,9,categoryA,f,genfile1.csv,0,,,,,,,,,0,1,1,0,0,27,27,17,,,,,,,,,,,,,,,,,,,,,,,,f,1,0.9056032078806311,,,,,,,,,,,,,,,,,,,,,,,101,002,2021_Sep_17_1136,joplin1,2021.2.3,60.250930018062405,
,1 1 0 1 1 1 1 0 0 1,3,categoryB,j,genfile1.csv,0,,,,,,,,,0,1,1,0,0,28,28,43,,,,,,,,,,,,,,,,,,,,,,,,f,0,0.3695345828309655,,,,,,,,,,,,,,,,,,,,,,,101,002,2021_Sep_17_1136,joplin1,2021.2.3,60.250930018062405,
,1 0 1 1 1 1 1 1 0 1,2,categoryB,j,genfile1.csv,1,,,,,,,,,0,1,1,0,0,29,29,10,,,,,,,,,,,,,,,,,,,,,,,,j,1,0.5767897090408951,,,,,,,,,,,,,,,,,,,,,,,101,002,2021_Sep_17_1136,joplin1,2021.2.3,60.250930018062405,
,0 1 1 1 1 1 1 0 0 1,3,categoryB,j,genfile1.csv,0,,,,,,,,,0,1,1,0,0,30,30,45,,,,,,,,,,,,,,,,,,,,,,,,j,1,0.8065615829546005,,,,,,,,,,,,,,,,,,,,,,,101,002,2021_Sep_17_1136,joplin1,2021.2.3,60.250930018062405,
,0 1 1 1 1 1 1 1 1 1,1,categoryB,j,genfile1.csv,0,,,,,,,,,0,1,1,0,0,31,31,54,,,,,,,,,,,,,,,,,,,,,,,,j,1,0.7301017499994487,,,,,,,,,,,,,,,,,,,,,,,101,002,2021_Sep_17_1136,joplin1,2021.2.3,60.250930018062405,
,0 1 1 0 0 0 0 0 1 0,7,categoryA,f,genfile1.csv,0,,,,,,,,,0,1,1,0,0,32,32,29,,,,,,,,,,,,,,,,,,,,,,,,j,0,0.6813560000155121,,,,,,,,,,,,,,,,,,,,,,,101,002,2021_Sep_17_1136,joplin1,2021.2.3,60.250930018062405,
,1 1 1 0 0 0 0 1 1 1,4,categoryB,j,genfile1.csv,1,,,,,,,,,0,1,1,0,0,33,33,12,,,,,,,,,,,,,,,,,,,,,,,,j,1,0.5481082079932094,,,,,,,,,,,,,,,,,,,,,,,101,002,2021_Sep_17_1136,joplin1,2021.2.3,60.250930018062405,
,1 1 1 1 1 1 1 1 1 0,1,categoryB,j,genfile1.csv,0,,,,,,,,,0,1,1,0,0,34,34,52,,,,,,,,,,,,,,,,,,,,,,,,j,1,0.4194629159756005,,,,,,,,,,,,,,,,,,,,,,,101,002,2021_Sep_17_1136,joplin1,2021.2.3,60.250930018062405,
,0 1 0 0 1 0 0 0 0 0,8,categoryA,f,genfile1.csv,0,,,,,,,,,0,1,1,0,0,35,35,25,,,,,,,,,,,,,,,,,,,,,,,,f,1,0.3486342921387404,,,,,,,,,,,,,,,,,,,,,,,101,002,2021_Sep_17_1136,joplin1,2021.2.3,60.250930018062405,
,1 0 1 1 1 1 1 1 1 1,1,categoryB,j,genfile1.csv,0,,,,,,,,,0,1,1,0,0,36,36,55,,,,,,,,,,,,,,,,,,,,,,,,j,1,0.3322478751651943,,,,,,,,,,,,,,,,,,,,,,,101,002,2021_Sep_17_1136,joplin1,2021.2.3,60.250930018062405,
,0 0 0 0 1 0 0 1 1 0,7,categoryA,f,genfile1.csv,0,,,,,,,,,0,1,1,0,0,37,37,30,,,,,,,,,,,,,,,,,,,,,,,,f,1,0.42697387491352856,,,,,,,,,,,,,,,,,,,,,,,101,002,2021_Sep_17_1136,joplin1,2021.2.3,60.250930018062405,
,1 0 0 0 0 0 1 0 0 0,8,categoryA,f,genfile1.csv,0,,,,,,,,,0,1,1,0,0,38,38,21,,,,,,,,,,,,,,,,,,,,,,,,f,1,0.3976412091869861,,,,,,,,,,,,,,,,,,,,,,,101,002,2021_Sep_17_1136,joplin1,2021.2.3,60.250930018062405,
,1 1 0 0 0 0 0 0 1 1,6,categoryA,f,genfile1.csv,1,,,,,,,,,0,1,1,0,0,39,39,8,,,,,,,,,,,,,,,,,,,,,,,,j,0,0.5319775841198862,,,,,,,,,,,,,,,,,,,,,,,101,002,2021_Sep_17_1136,joplin1,2021.2.3,60.250930018062405,
,0 0 0 0 0 0 0 0 0 1,9,categoryA,f,genfile1.csv,0,,,,,,,,,0,1,1,0,0,40,40,18,,,,,,,,,,,,,,,,,,,,,,,,f,1,0.3521278330590576,,,,,,,,,,,,,,,,,,,,,,,101,002,2021_Sep_17_1136,joplin1,2021.2.3,60.250930018062405,
,0 0 1 1 1 1 1 1 0 0,4,categoryB,j,genfile1.csv,1,,,,,,,,,0,1,1,0,0,41,41,15,,,,,,,,,,,,,,,,,,,,,,,,f,0,0.7028477920684963,,,,,,,,,,,,,,,,,,,,,,,101,002,2021_Sep_17_1136,joplin1,2021.2.3,60.250930018062405,
,0 1 1 1 1 1 0 1 0 0,4,categoryB,j,genfile1.csv,0,,,,,,,,,0,1,1,0,0,42,42,40,,,,,,,,,,,,,,,,,,,,,,,,f,0,0.2626850828528404,,,,,,,,,,,,,,,,,,,,,,,101,002,2021_Sep_17_1136,joplin1,2021.2.3,60.250930018062405,
,1 1 0 0 0 0 0 0 0 0,8,categoryA,f,genfile1.csv,0,,,,,,,,,0,1,1,0,0,43,43,23,,,,,,,,,,,,,,,,,,,,,,,,f,1,0.37673691706731915,,,,,,,,,,,,,,,,,,,,,,,101,002,2021_Sep_17_1136,joplin1,2021.2.3,60.250930018062405,
,1 1 0 1 0 0 1 0 1 1,4,categoryB,j,genfile1.csv,1,,,,,,,,,0,1,1,0,0,44,44,11,,,,,,,,,,,,,,,,,,,,,,,,f,0,0.5875189581420273,,,,,,,,,,,,,,,,,,,,,,,101,002,2021_Sep_17_1136,joplin1,2021.2.3,60.250930018062405,
,0 1 1 1 1 1 1 1 1 0,2,categoryB,j,genfile1.csv,1,,,,,,,,,0,1,1,0,0,45,45,9,,,,,,,,,,,,,,,,,,,,,,,,j,1,0.4414992919191718,,,,,,,,,,,,,,,,,,,,,,,101,002,2021_Sep_17_1136,joplin1,2021.2.3,60.250930018062405,
,0 0 0 0 1 1 0 0 0 0,8,categoryA,f,genfile1.csv,0,,,,,,,,,0,1,1,0,0,46,46,24,,,,,,,,,,,,,,,,,,,,,,,,f,1,0.29091787501238286,,,,,,,,,,,,,,,,,,,,,,,101,002,2021_Sep_17_1136,joplin1,2021.2.3,60.250930018062405,
,0 0 0 0 0 1 0 0 0 0,9,categoryA,f,genfile1.csv,0,,,,,,,,,0,1,1,0,0,47,47,19,,,,,,,,,,,,,,,,,,,,,,,,f,1,0.13933087489567697,,,,,,,,,,,,,,,,,,,,,,,101,002,2021_Sep_17_1136,joplin1,2021.2.3,60.250930018062405,
,1 1 0 1 1 1 1 0 1 1,2,categoryB,j,genfile1.csv,1,,,,,,,,,0,1,1,0,0,48,48,14,,,,,,,,,,,,,,,,,,,,,,,,f,0,0.2202167499344796,,,,,,,,,,,,,,,,,,,,,,,101,002,2021_Sep_17_1136,joplin1,2021.2.3,60.250930018062405,
,0 0 0 0 1 1 0 1 0 0,7,categoryA,f,genfile1.csv,0,,,,,,,,,0,1,1,0,0,49,49,26,,,,,,,,,,,,,,,,,,,,,,,,f,1,0.2907363339327276,,,,,,,,,,,,,,,,,,,,,,,101,002,2021_Sep_17_1136,joplin1,2021.2.3,60.250930018062405,
,1 0 0 0 1 1 1 1 1 0,4,categoryB,j,genfile1.csv,0,,,,,,,,,0,1,1,0,0,50,50,36,,,,,,,,,,,,,,,,,,,,,,,,f,0,0.3861804998014122,,,,,,,,,,,,,,,,,,,,,,,101,002,2021_Sep_17_1136,joplin1,2021.2.3,60.250930018062405,
,0 0 1 0 0 0 0 1 0 0,8,categoryA,f,genfile1.csv,1,,,,,,,,,0,1,1,0,0,51,51,7,,,,,,,,,,,,,,,,,,,,,,,,f,1,0.7432071249932051,,,,,,,,,,,,,,,,,,,,,,,101,002,2021_Sep_17_1136,joplin1,2021.2.3,60.250930018062405,
,0 0 0 1 0 1 1 1 1 1,4,categoryB,j,genfile1.csv,0,,,,,,,,,0,1,1,0,0,52,52,39,,,,,,,,,,,,,,,,,,,,,,,,f,0,0.4692835418973118,,,,,,,,,,,,,,,,,,,,,,,101,002,2021_Sep_17_1136,joplin1,2021.2.3,60.250930018062405,
,0 1 0 0 0 1 1 1 0 0,6,categoryA,f,genfile1.csv,0,,,,,,,,,0,1,1,0,0,53,53,34,,,,,,,,,,,,,,,,,,,,,,,,f,1,0.19802712509408593,,,,,,,,,,,,,,,,,,,,,,,101,002,2021_Sep_17_1136,joplin1,2021.2.3,60.250930018062405,
,1 1 1 1 1 0 1 1 1 1,1,categoryB,j,genfile1.csv,0,,,,,,,,,0,1,1,0,0,54,54,51,,,,,,,,,,,,,,,,,,,,,,,,j,1,0.5323251248337328,,,,,,,,,,,,,,,,,,,,,,,101,002,2021_Sep_17_1136,joplin1,2021.2.3,60.250930018062405,
,1 1 1 1 1 0 1 0 0 0,4,categoryB,j,genfile1.csv,0,,,,,,,,,0,1,1,0,0,55,55,37,,,,,,,,,,,,,,,,,,,,,,,,j,1,0.6816284579690546,,,,,,,,,,,,,,,,,,,,,,,101,002,2021_Sep_17_1136,joplin1,2021.2.3,60.250930018062405,
,,,,,genfile1.csv,,,,,,,,,,0,1,1,0,,,,,,,,,,,,,,,,,,space,2.804416500031948,,,,,,,,,,,,,,,,,,,,,,,,,,,,,,,,,,101,002,2021_Sep_17_1136,joplin1,2021.2.3,60.250930018062405,
,,,,,,,,,,,,,,,,,,,,,,,,,,,,,,,,,,,,,,,,,,,,,,,,,space,5.316184374969453,,,,,,,,,,,,,,,,,,,,,101,002,2021_Sep_17_1136,joplin1,2021.2.3,60.250930018062405,
,,,,,,,,,,,,,,,,,,,,,,,,,,,,,,,,,,,,,,,,,,,,,,,,,,,return,26.60670162504539,,,,,,,,,,,,,,,,,,,101,002,2021_Sep_17_1136,joplin1,2021.2.3,60.250930018062405,
,,,,,,,,,,,,,,,,,,,,,,,,,,,,,,,,,,,,,,,,,,,,,,,,,,,,,0.7,radio,0.3,Are you Hispanic/Latino?,0,None,None,no,11.315435250056908,,,,,,,,,,101,002,2021_Sep_17_1136,joplin1,2021.2.3,60.250930018062405,
,,,,,,,,,,,,,,,,,,,,,,,,,,,,,,,,,,,,,,,,,,,,,,,,,,,,,0.7,radio,0.3,Are you an American Indian or Alaska Native?,1,None,None,no,15.589791165897623,,,,,,,,,,101,002,2021_Sep_17_1136,joplin1,2021.2.3,60.250930018062405,
,,,,,,,,,,,,,,,,,,,,,,,,,,,,,,,,,,,,,,,,,,,,,,,,,,,,,0.7,radio,0.3,Are you Asian?,2,None,None,no,19.5606419169344,,,,,,,,,,101,002,2021_Sep_17_1136,joplin1,2021.2.3,60.250930018062405,
,,,,,,,,,,,,,,,,,,,,,,,,,,,,,,,,,,,,,,,,,,,,,,,,,,,,,0.7,radio,0.3,Are you Black or African American?,3,None,None,yes,23.675855290843174,,,,,,,,,,101,002,2021_Sep_17_1136,joplin1,2021.2.3,60.250930018062405,
,,,,,,,,,,,,,,,,,,,,,,,,,,,,,,,,,,,,,,,,,,,,,,,,,,,,,0.7,radio,0.3,Are you a Native Hawaiian or other Pacific Islander?,4,None,None,no,14.354494959115982,,,,,,,,,,101,002,2021_Sep_17_1136,joplin1,2021.2.3,60.250930018062405,
,,,,,,,,,,,,,,,,,,,,,,,,,,,,,,,,,,,,,,,,,,,,,,,,,,,,,0.7,radio,0.3,Are you White?,5,None,None,yes,16.05468845902942,,,,,,,,,,101,002,2021_Sep_17_1136,joplin1,2021.2.3,60.250930018062405,
,,,,,,,,,,,,,,,,,,,,,,,,,,,,,,,,,,,,,,,,,,,,,,,,,,,,,0.85,radio,0.3,"Do you have any history of neurological issues such as stroke, head injury or a neurodegenerative disorder?",6,None,None,no,11.93928008293733,,,,,,,,,,101,002,2021_Sep_17_1136,joplin1,2021.2.3,60.250930018062405,
,,,,,,,,,,,,,,,,,,,,,,,,,,,,,,,,,,,,,,,,,,,,,,,,,,,,,,,,,,,,,,return,39.63324366603047,,,,,,,,101,002,2021_Sep_17_1136,joplin1,2021.2.3,60.250930018062405,
,,,,,,,,,,,,,,,,,,,,,,,,,,,,,,,,,,,,,,,,,,,,,,,,,,,,,,,,,,,,,,,,return,5.348760500084609,,,,,,101,002,2021_Sep_17_1136,joplin1,2021.2.3,60.250930018062405,
,,,,,,,,,,,,,,,,,,,,,,,,,,,,,,,,,,,,,,,,,,,,,,,,,,,,,,,,,,,,,,,,,,,22,y,3.2170102919917554,,101,002,2021_Sep_17_1136,joplin1,2021.2.3,60.250930018062405,
,,,,,,,,,,,,,,,,,,,,,,,,,,,,,,,,,,,,,,,,,,,,,,,,,,,,,,,,,,,,,,,,,,,,,,0,,,,,,,
