train_set,stim_id,sums_feat,category,correct_key,gen_file,train_item,train_runs.thisRepN,train_runs.thisTrialN,train_runs.thisN,train_runs.thisIndex,train_trials.thisRepN,train_trials.thisTrialN,train_trials.thisN,train_trials.thisIndex,test_runs.thisRepN,test_runs.thisTrialN,test_runs.thisN,test_runs.thisIndex,test_trials.thisRepN,test_trials.thisTrialN,test_trials.thisN,test_trials.thisIndex,welcome_key.keys,welcome_key.rt,welcome_key.started,welcome_key.stopped,train_inst1_key.keys,train_inst1_key.rt,train_inst2_key.keys,train_inst2_key.rt,train_begin_key.keys,train_begin_key.rt,train_key.keys,train_key.corr,train_key.rt,break_key.keys,break_key.rt,key_resp.keys,key_resp.rt,test_inst1_key.keys,test_inst1_key.rt,test_inst2_key.keys,test_inst2_key.rt,test_begin_key.keys,test_begin_key.rt,test_key.keys,test_key.corr,test_key.rt,test_end_key.keys,demo_inst1_key.keys,form.questionWidth,form.type,form.respWidth,form.itemText,form.index,form.font,form.markerColor,form.response,form.rt,form_key.keys,demo_inst2_key.keys,gender_string,age_string,demo4_key.keys,typedWord,participant,session,date,expName,psychopyVersion,frameRate,
,,,,,,,,,,,,,,,,,,,,,,,space,34.097997083095834,11.20170741691254,None,,,,,,,,,,,,,,,,,,,,,,,,,,,,,,,,,,,,,,,,101,001,2021_Sep_15_1145,joplin1,2021.2.3,60.13046826144607,
,,,,,,,,,,,,,,,,,,,,,,,,,,,f,14.5507590000052,,,,,,,,,,,,,,,,,,,,,,,,,,,,,,,,,,,,,,101,001,2021_Sep_15_1145,joplin1,2021.2.3,60.13046826144607,
,,,,,,,,,,,,,,,,,,,,,,,,,,,,,space,9.51159316697158,,,,,,,,,,,,,,,,,,,,,,,,,,,,,,,,,,,,101,001,2021_Sep_15_1145,joplin1,2021.2.3,60.13046826144607,
,,,,,,,,,,,,,,,,,,,,,,,,,,,,,,,space,16.896128833061084,,,,,,,,,,,,,,,,,,,,,,,,,,,,,,,,,,101,001,2021_Sep_15_1145,joplin1,2021.2.3,60.13046826144607,
_train_cond.csv,1 1 0 1 0 0 1 0 1 1,4,categoryB,j,,,0,0,0,6,0,0,0,9,,,,,,,,,,,,,,,,,,,f,0,1.6363750828895718,,,,,,,,,,,,,,,,,,,,,,,,,,,,,,,101,001,2021_Sep_15_1145,joplin1,2021.2.3,60.13046826144607,
_train_cond.csv,0 0 0 1 1 1 1 0 0 0,6,categoryA,f,,,0,0,0,6,0,1,1,3,,,,,,,,,,,,,,,,,,,None,0,,,,,,,,,,,,,,,,,,,,,,,,,,,,,,,,101,001,2021_Sep_15_1145,joplin1,2021.2.3,60.13046826144607,
_train_cond.csv,0 0 0 1 0 0 1 0 0 0,8,categoryA,f,,,0,0,0,6,0,2,2,4,,,,,,,,,,,,,,,,,,,j,0,0.19437637482769787,,,,,,,,,,,,,,,,,,,,,,,,,,,,,,,101,001,2021_Sep_15_1145,joplin1,2021.2.3,60.13046826144607,
_train_cond.csv,1 0 0 0 0 0 0 0 0 1,8,categoryA,f,,,0,0,0,6,0,3,3,0,,,,,,,,,,,,,,,,,,,f,1,0.00779991690069437,,,,,,,,,,,,,,,,,,,,,,,,,,,,,,,101,001,2021_Sep_15_1145,joplin1,2021.2.3,60.13046826144607,
_train_cond.csv,1 1 0 0 0 0 0 0 1 1,6,categoryA,f,,,0,0,0,6,0,4,4,6,,,,,,,,,,,,,,,,,,,f,1,0.6513485421892256,,,,,,,,,,,,,,,,,,,,,,,,,,,,,,,101,001,2021_Sep_15_1145,joplin1,2021.2.3,60.13046826144607,
_train_cond.csv,1 1 1 0 0 0 0 1 1 1,4,categoryB,j,,,0,0,0,6,0,5,5,10,,,,,,,,,,,,,,,,,,,f,0,0.566443582996726,,,,,,,,,,,,,,,,,,,,,,,,,,,,,,,101,001,2021_Sep_15_1145,joplin1,2021.2.3,60.13046826144607,
_train_cond.csv,0 1 1 1 1 1 1 1 1 0,2,categoryB,j,,,0,0,0,6,0,6,6,7,,,,,,,,,,,,,,,,,,,j,1,0.156477167038247,,,,,,,,,,,,,,,,,,,,,,,,,,,,,,,101,001,2021_Sep_15_1145,joplin1,2021.2.3,60.13046826144607,
_train_cond.csv,0 0 1 1 1 1 1 1 0 0,4,categoryB,j,,,0,0,0,6,0,7,7,13,,,,,,,,,,,,,,,,,,,j,1,0.04155308404006064,,,,,,,,,,,,,,,,,,,,,,,,,,,,,,,101,001,2021_Sep_15_1145,joplin1,2021.2.3,60.13046826144607,
_train_cond.csv,1 1 0 1 1 1 1 0 1 1,2,categoryB,j,,,0,0,0,6,0,8,8,12,,,,,,,,,,,,,,,,,,,j,1,0.1003553329501301,,,,,,,,,,,,,,,,,,,,,,,,,,,,,,,101,001,2021_Sep_15_1145,joplin1,2021.2.3,60.13046826144607,
_train_cond.csv,0 0 1 0 1 1 0 1 0 0,6,categoryA,f,,,0,0,0,6,0,9,9,2,,,,,,,,,,,,,,,,,,,j,0,0.3734819160308689,,,,,,,,,,,,,,,,,,,,,,,,,,,,,,,101,001,2021_Sep_15_1145,joplin1,2021.2.3,60.13046826144607,
_train_cond.csv,0 1 0 0 0 0 0 0 1 0,8,categoryA,f,,,0,0,0,6,0,10,10,1,,,,,,,,,,,,,,,,,,,f,1,0.29608833394013345,,,,,,,,,,,,,,,,,,,,,,,,,,,,,,,101,001,2021_Sep_15_1145,joplin1,2021.2.3,60.13046826144607,
_train_cond.csv,1 1 1 0 1 1 0 1 1 1,2,categoryB,j,,,0,0,0,6,0,11,11,11,,,,,,,,,,,,,,,,,,,f,0,0.7614734170492738,,,,,,,,,,,,,,,,,,,,,,,,,,,,,,,101,001,2021_Sep_15_1145,joplin1,2021.2.3,60.13046826144607,
_train_cond.csv,0 0 1 0 0 0 0 1 0 0,8,categoryA,f,,,0,0,0,6,0,12,12,5,,,,,,,,,,,,,,,,,,,f,1,0.18280787486582994,,,,,,,,,,,,,,,,,,,,,,,,,,,,,,,101,001,2021_Sep_15_1145,joplin1,2021.2.3,60.13046826144607,
_train_cond.csv,1 0 1 1 1 1 1 1 0 1,2,categoryB,j,,,0,0,0,6,0,13,13,8,,,,,,,,,,,,,,,,,,,j,1,0.11620975006371737,,,,,,,,,,,,,,,,,,,,,,,,,,,,,,,101,001,2021_Sep_15_1145,joplin1,2021.2.3,60.13046826144607,
_train_cond.csv,1 1 0 1 1 1 1 0 1 1,2,categoryB,j,,,0,0,0,6,1,0,14,12,,,,,,,,,,,,,,,,,,,f,0,0.05390645796433091,,,,,,,,,,,,,,,,,,,,,,,,,,,,,,,101,001,2021_Sep_15_1145,joplin1,2021.2.3,60.13046826144607,
_train_cond.csv,0 1 0 0 0 0 0 0 1 0,8,categoryA,f,,,0,0,0,6,1,1,15,1,,,,,,,,,,,,,,,,,,,f,1,0.0813099998049438,,,,,,,,,,,,,,,,,,,,,,,,,,,,,,,101,001,2021_Sep_15_1145,joplin1,2021.2.3,60.13046826144607,
_train_cond.csv,1 0 0 0 0 0 0 0 0 1,8,categoryA,f,,,0,0,0,6,1,2,16,0,,,,,,,,,,,,,,,,,,,f,1,0.1153688330668956,,,,,,,,,,,,,,,,,,,,,,,,,,,,,,,101,001,2021_Sep_15_1145,joplin1,2021.2.3,60.13046826144607,
_train_cond.csv,0 0 1 0 0 0 0 1 0 0,8,categoryA,f,,,0,0,0,6,1,3,17,5,,,,,,,,,,,,,,,,,,,f,1,0.3333840419072658,,,,,,,,,,,,,,,,,,,,,,,,,,,,,,,101,001,2021_Sep_15_1145,joplin1,2021.2.3,60.13046826144607,
_train_cond.csv,0 0 1 0 1 1 0 1 0 0,6,categoryA,f,,,0,0,0,6,1,4,18,2,,,,,,,,,,,,,,,,,,,j,0,0.39000120805576444,,,,,,,,,,,,,,,,,,,,,,,,,,,,,,,101,001,2021_Sep_15_1145,joplin1,2021.2.3,60.13046826144607,
_train_cond.csv,0 0 0 1 1 1 1 0 0 0,6,categoryA,f,,,0,0,0,6,1,5,19,3,,,,,,,,,,,,,,,,,,,j,0,0.30556745803914964,,,,,,,,,,,,,,,,,,,,,,,,,,,,,,,101,001,2021_Sep_15_1145,joplin1,2021.2.3,60.13046826144607,
_train_cond.csv,0 0 1 1 1 1 1 1 0 0,4,categoryB,j,,,0,0,0,6,1,6,20,13,,,,,,,,,,,,,,,,,,,j,1,0.5845021670684218,,,,,,,,,,,,,,,,,,,,,,,,,,,,,,,101,001,2021_Sep_15_1145,joplin1,2021.2.3,60.13046826144607,
_train_cond.csv,1 1 1 0 0 0 0 1 1 1,4,categoryB,j,,,0,0,0,6,1,7,21,10,,,,,,,,,,,,,,,,,,,f,0,0.6919535421766341,,,,,,,,,,,,,,,,,,,,,,,,,,,,,,,101,001,2021_Sep_15_1145,joplin1,2021.2.3,60.13046826144607,
_train_cond.csv,1 1 0 0 0 0 0 0 1 1,6,categoryA,f,,,0,0,0,6,1,8,22,6,,,,,,,,,,,,,,,,,,,f,1,0.44389370805583894,,,,,,,,,,,,,,,,,,,,,,,,,,,,,,,101,001,2021_Sep_15_1145,joplin1,2021.2.3,60.13046826144607,
_train_cond.csv,0 1 1 1 1 1 1 1 1 0,2,categoryB,j,,,0,0,0,6,1,9,23,7,,,,,,,,,,,,,,,,,,,f,0,0.7833842921536416,,,,,,,,,,,,,,,,,,,,,,,,,,,,,,,101,001,2021_Sep_15_1145,joplin1,2021.2.3,60.13046826144607,
_train_cond.csv,0 0 0 1 0 0 1 0 0 0,8,categoryA,f,,,0,0,0,6,1,10,24,4,,,,,,,,,,,,,,,,,,,f,1,1.2860773331485689,,,,,,,,,,,,,,,,,,,,,,,,,,,,,,,101,001,2021_Sep_15_1145,joplin1,2021.2.3,60.13046826144607,
_train_cond.csv,1 1 1 0 1 1 0 1 1 1,2,categoryB,j,,,0,0,0,6,1,11,25,11,,,,,,,,,,,,,,,,,,,j,1,1.231446625199169,,,,,,,,,,,,,,,,,,,,,,,,,,,,,,,101,001,2021_Sep_15_1145,joplin1,2021.2.3,60.13046826144607,
_train_cond.csv,1 1 0 1 0 0 1 0 1 1,4,categoryB,j,,,0,0,0,6,1,12,26,9,,,,,,,,,,,,,,,,,,,f,0,0.7801314580719918,,,,,,,,,,,,,,,,,,,,,,,,,,,,,,,101,001,2021_Sep_15_1145,joplin1,2021.2.3,60.13046826144607,
_train_cond.csv,1 0 1 1 1 1 1 1 0 1,2,categoryB,j,,,0,0,0,6,1,13,27,8,,,,,,,,,,,,,,,,,,,j,1,1.8026694171130657,,,,,,,,,,,,,,,,,,,,,,,,,,,,,,,101,001,2021_Sep_15_1145,joplin1,2021.2.3,60.13046826144607,
_train_cond.csv,0 0 0 1 0 0 1 0 0 0,8,categoryA,f,,,0,0,0,6,2,0,28,4,,,,,,,,,,,,,,,,,,,j,0,1.2561472079250962,,,,,,,,,,,,,,,,,,,,,,,,,,,,,,,101,001,2021_Sep_15_1145,joplin1,2021.2.3,60.13046826144607,
_train_cond.csv,1 1 1 0 1 1 0 1 1 1,2,categoryB,j,,,0,0,0,6,2,1,29,11,,,,,,,,,,,,,,,,,,,f,0,0.9154515829868615,,,,,,,,,,,,,,,,,,,,,,,,,,,,,,,101,001,2021_Sep_15_1145,joplin1,2021.2.3,60.13046826144607,
_train_cond.csv,0 0 0 1 1 1 1 0 0 0,6,categoryA,f,,,0,0,0,6,2,2,30,3,,,,,,,,,,,,,,,,,,,j,0,1.2778902500867844,,,,,,,,,,,,,,,,,,,,,,,,,,,,,,,101,001,2021_Sep_15_1145,joplin1,2021.2.3,60.13046826144607,
_train_cond.csv,1 0 1 1 1 1 1 1 0 1,2,categoryB,j,,,0,0,0,6,2,3,31,8,,,,,,,,,,,,,,,,,,,f,0,0.7603940409608185,,,,,,,,,,,,,,,,,,,,,,,,,,,,,,,101,001,2021_Sep_15_1145,joplin1,2021.2.3,60.13046826144607,
_train_cond.csv,1 1 0 0 0 0 0 0 1 1,6,categoryA,f,,,0,0,0,6,2,4,32,6,,,,,,,,,,,,,,,,,,,j,0,0.5357496659271419,,,,,,,,,,,,,,,,,,,,,,,,,,,,,,,101,001,2021_Sep_15_1145,joplin1,2021.2.3,60.13046826144607,
_train_cond.csv,1 0 0 0 0 0 0 0 0 1,8,categoryA,f,,,0,0,0,6,2,5,33,0,,,,,,,,,,,,,,,,,,,f,1,1.3038884170819074,,,,,,,,,,,,,,,,,,,,,,,,,,,,,,,101,001,2021_Sep_15_1145,joplin1,2021.2.3,60.13046826144607,
_train_cond.csv,1 1 0 1 0 0 1 0 1 1,4,categoryB,j,,,0,0,0,6,2,6,34,9,,,,,,,,,,,,,,,,,,,j,1,1.1207976669538766,,,,,,,,,,,,,,,,,,,,,,,,,,,,,,,101,001,2021_Sep_15_1145,joplin1,2021.2.3,60.13046826144607,
_train_cond.csv,1 1 1 0 0 0 0 1 1 1,4,categoryB,j,,,0,0,0,6,2,7,35,10,,,,,,,,,,,,,,,,,,,f,0,0.9375705828424543,,,,,,,,,,,,,,,,,,,,,,,,,,,,,,,101,001,2021_Sep_15_1145,joplin1,2021.2.3,60.13046826144607,
_train_cond.csv,0 1 1 1 1 1 1 1 1 0,2,categoryB,j,,,0,0,0,6,2,8,36,7,,,,,,,,,,,,,,,,,,,j,1,0.9613087081816047,,,,,,,,,,,,,,,,,,,,,,,,,,,,,,,101,001,2021_Sep_15_1145,joplin1,2021.2.3,60.13046826144607,
_train_cond.csv,0 0 1 1 1 1 1 1 0 0,4,categoryB,j,,,0,0,0,6,2,9,37,13,,,,,,,,,,,,,,,,,,,f,0,0.5847271669190377,,,,,,,,,,,,,,,,,,,,,,,,,,,,,,,101,001,2021_Sep_15_1145,joplin1,2021.2.3,60.13046826144607,
_train_cond.csv,1 1 0 1 1 1 1 0 1 1,2,categoryB,j,,,0,0,0,6,2,10,38,12,,,,,,,,,,,,,,,,,,,j,1,1.439186125062406,,,,,,,,,,,,,,,,,,,,,,,,,,,,,,,101,001,2021_Sep_15_1145,joplin1,2021.2.3,60.13046826144607,
_train_cond.csv,0 0 1 0 0 0 0 1 0 0,8,categoryA,f,,,0,0,0,6,2,11,39,5,,,,,,,,,,,,,,,,,,,f,1,0.6994560419116169,,,,,,,,,,,,,,,,,,,,,,,,,,,,,,,101,001,2021_Sep_15_1145,joplin1,2021.2.3,60.13046826144607,
_train_cond.csv,0 0 1 0 1 1 0 1 0 0,6,categoryA,f,,,0,0,0,6,2,12,40,2,,,,,,,,,,,,,,,,,,,j,0,0.44489920791238546,,,,,,,,,,,,,,,,,,,,,,,,,,,,,,,101,001,2021_Sep_15_1145,joplin1,2021.2.3,60.13046826144607,
_train_cond.csv,0 1 0 0 0 0 0 0 1 0,8,categoryA,f,,,0,0,0,6,2,13,41,1,,,,,,,,,,,,,,,,,,,j,0,1.0406565831508487,,,,,,,,,,,,,,,,,,,,,,,,,,,,,,,101,001,2021_Sep_15_1145,joplin1,2021.2.3,60.13046826144607,
_train_cond.csv,,,,,,,0,0,0,6,,,,,,,,,,,,,,,,,,,,,,,,,,space,23.373641041805968,,,,,,,,,,,,,,,,,,,,,,,,,,,,,101,001,2021_Sep_15_1145,joplin1,2021.2.3,60.13046826144607,
_train_cond.csv,1 1 0 1 1 1 1 0 1 1,2,categoryB,j,,,0,1,1,0,0,0,0,12,,,,,,,,,,,,,,,,,,,f,0,0.8078021670226008,,,,,,,,,,,,,,,,,,,,,,,,,,,,,,,101,001,2021_Sep_15_1145,joplin1,2021.2.3,60.13046826144607,
_train_cond.csv,1 1 1 0 0 0 0 1 1 1,4,categoryB,j,,,0,1,1,0,0,1,1,10,,,,,,,,,,,,,,,,,,,j,1,0.46882808301597834,,,,,,,,,,,,,,,,,,,,,,,,,,,,,,,101,001,2021_Sep_15_1145,joplin1,2021.2.3,60.13046826144607,
_train_cond.csv,1 0 1 1 1 1 1 1 0 1,2,categoryB,j,,,0,1,1,0,0,2,2,8,,,,,,,,,,,,,,,,,,,j,1,0.6000183750875294,,,,,,,,,,,,,,,,,,,,,,,,,,,,,,,101,001,2021_Sep_15_1145,joplin1,2021.2.3,60.13046826144607,
_train_cond.csv,0 0 1 1 1 1 1 1 0 0,4,categoryB,j,,,0,1,1,0,0,3,3,13,,,,,,,,,,,,,,,,,,,f,0,0.3976899581030011,,,,,,,,,,,,,,,,,,,,,,,,,,,,,,,101,001,2021_Sep_15_1145,joplin1,2021.2.3,60.13046826144607,
_train_cond.csv,1 1 1 0 1 1 0 1 1 1,2,categoryB,j,,,0,1,1,0,0,4,4,11,,,,,,,,,,,,,,,,,,,j,1,0.49139691703021526,,,,,,,,,,,,,,,,,,,,,,,,,,,,,,,101,001,2021_Sep_15_1145,joplin1,2021.2.3,60.13046826144607,
_train_cond.csv,0 0 1 0 1 1 0 1 0 0,6,categoryA,f,,,0,1,1,0,0,5,5,2,,,,,,,,,,,,,,,,,,,j,0,0.509162750095129,,,,,,,,,,,,,,,,,,,,,,,,,,,,,,,101,001,2021_Sep_15_1145,joplin1,2021.2.3,60.13046826144607,
_train_cond.csv,0 1 1 1 1 1 1 1 1 0,2,categoryB,j,,,0,1,1,0,0,6,6,7,,,,,,,,,,,,,,,,,,,j,1,0.5017745830118656,,,,,,,,,,,,,,,,,,,,,,,,,,,,,,,101,001,2021_Sep_15_1145,joplin1,2021.2.3,60.13046826144607,
_train_cond.csv,0 0 1 0 0 0 0 1 0 0,8,categoryA,f,,,0,1,1,0,0,7,7,5,,,,,,,,,,,,,,,,,,,f,1,0.5768709999974817,,,,,,,,,,,,,,,,,,,,,,,,,,,,,,,101,001,2021_Sep_15_1145,joplin1,2021.2.3,60.13046826144607,
_train_cond.csv,1 0 0 0 0 0 0 0 0 1,8,categoryA,f,,,0,1,1,0,0,8,8,0,,,,,,,,,,,,,,,,,,,f,1,0.654987792018801,,,,,,,,,,,,,,,,,,,,,,,,,,,,,,,101,001,2021_Sep_15_1145,joplin1,2021.2.3,60.13046826144607,
_train_cond.csv,0 0 0 1 1 1 1 0 0 0,6,categoryA,f,,,0,1,1,0,0,9,9,3,,,,,,,,,,,,,,,,,,,j,0,0.6992946250829846,,,,,,,,,,,,,,,,,,,,,,,,,,,,,,,101,001,2021_Sep_15_1145,joplin1,2021.2.3,60.13046826144607,
_train_cond.csv,1 1 0 0 0 0 0 0 1 1,6,categoryA,f,,,0,1,1,0,0,10,10,6,,,,,,,,,,,,,,,,,,,f,1,0.7657482919748873,,,,,,,,,,,,,,,,,,,,,,,,,,,,,,,101,001,2021_Sep_15_1145,joplin1,2021.2.3,60.13046826144607,
_train_cond.csv,0 1 0 0 0 0 0 0 1 0,8,categoryA,f,,,0,1,1,0,0,11,11,1,,,,,,,,,,,,,,,,,,,f,1,0.6203173329122365,,,,,,,,,,,,,,,,,,,,,,,,,,,,,,,101,001,2021_Sep_15_1145,joplin1,2021.2.3,60.13046826144607,
_train_cond.csv,1 1 0 1 0 0 1 0 1 1,4,categoryB,j,,,0,1,1,0,0,12,12,9,,,,,,,,,,,,,,,,,,,f,0,0.6497914160136133,,,,,,,,,,,,,,,,,,,,,,,,,,,,,,,101,001,2021_Sep_15_1145,joplin1,2021.2.3,60.13046826144607,
_train_cond.csv,0 0 0 1 0 0 1 0 0 0,8,categoryA,f,,,0,1,1,0,0,13,13,4,,,,,,,,,,,,,,,,,,,f,1,0.5817812499590218,,,,,,,,,,,,,,,,,,,,,,,,,,,,,,,101,001,2021_Sep_15_1145,joplin1,2021.2.3,60.13046826144607,
_train_cond.csv,0 0 1 1 1 1 1 1 0 0,4,categoryB,j,,,0,1,1,0,1,0,14,13,,,,,,,,,,,,,,,,,,,j,1,0.5163780408911407,,,,,,,,,,,,,,,,,,,,,,,,,,,,,,,101,001,2021_Sep_15_1145,joplin1,2021.2.3,60.13046826144607,
_train_cond.csv,1 0 0 0 0 0 0 0 0 1,8,categoryA,f,,,0,1,1,0,1,1,15,0,,,,,,,,,,,,,,,,,,,f,1,0.3904553330503404,,,,,,,,,,,,,,,,,,,,,,,,,,,,,,,101,001,2021_Sep_15_1145,joplin1,2021.2.3,60.13046826144607,
_train_cond.csv,0 1 0 0 0 0 0 0 1 0,8,categoryA,f,,,0,1,1,0,1,2,16,1,,,,,,,,,,,,,,,,,,,f,1,0.5418859170749784,,,,,,,,,,,,,,,,,,,,,,,,,,,,,,,101,001,2021_Sep_15_1145,joplin1,2021.2.3,60.13046826144607,
_train_cond.csv,0 0 0 1 1 1 1 0 0 0,6,categoryA,f,,,0,1,1,0,1,3,17,3,,,,,,,,,,,,,,,,,,,j,0,0.49421083298511803,,,,,,,,,,,,,,,,,,,,,,,,,,,,,,,101,001,2021_Sep_15_1145,joplin1,2021.2.3,60.13046826144607,
_train_cond.csv,0 0 1 0 0 0 0 1 0 0,8,categoryA,f,,,0,1,1,0,1,4,18,5,,,,,,,,,,,,,,,,,,,f,1,0.6004199581220746,,,,,,,,,,,,,,,,,,,,,,,,,,,,,,,101,001,2021_Sep_15_1145,joplin1,2021.2.3,60.13046826144607,
_train_cond.csv,1 1 0 1 0 0 1 0 1 1,4,categoryB,j,,,0,1,1,0,1,5,19,9,,,,,,,,,,,,,,,,,,,f,0,0.5180667501408607,,,,,,,,,,,,,,,,,,,,,,,,,,,,,,,101,001,2021_Sep_15_1145,joplin1,2021.2.3,60.13046826144607,
_train_cond.csv,1 1 0 0 0 0 0 0 1 1,6,categoryA,f,,,0,1,1,0,1,6,20,6,,,,,,,,,,,,,,,,,,,j,0,0.8386664169374853,,,,,,,,,,,,,,,,,,,,,,,,,,,,,,,101,001,2021_Sep_15_1145,joplin1,2021.2.3,60.13046826144607,
_train_cond.csv,0 0 0 1 0 0 1 0 0 0,8,categoryA,f,,,0,1,1,0,1,7,21,4,,,,,,,,,,,,,,,,,,,f,1,0.23466437519527972,,,,,,,,,,,,,,,,,,,,,,,,,,,,,,,101,001,2021_Sep_15_1145,joplin1,2021.2.3,60.13046826144607,
_train_cond.csv,0 1 1 1 1 1 1 1 1 0,2,categoryB,j,,,0,1,1,0,1,8,22,7,,,,,,,,,,,,,,,,,,,j,1,0.3746195419225842,,,,,,,,,,,,,,,,,,,,,,,,,,,,,,,101,001,2021_Sep_15_1145,joplin1,2021.2.3,60.13046826144607,
_train_cond.csv,1 1 1 0 0 0 0 1 1 1,4,categoryB,j,,,0,1,1,0,1,9,23,10,,,,,,,,,,,,,,,,,,,f,0,0.11656637489795685,,,,,,,,,,,,,,,,,,,,,,,,,,,,,,,101,001,2021_Sep_15_1145,joplin1,2021.2.3,60.13046826144607,
_train_cond.csv,1 1 0 1 1 1 1 0 1 1,2,categoryB,j,,,0,1,1,0,1,10,24,12,,,,,,,,,,,,,,,,,,,j,1,0.4447793329600245,,,,,,,,,,,,,,,,,,,,,,,,,,,,,,,101,001,2021_Sep_15_1145,joplin1,2021.2.3,60.13046826144607,
_train_cond.csv,1 0 1 1 1 1 1 1 0 1,2,categoryB,j,,,0,1,1,0,1,11,25,8,,,,,,,,,,,,,,,,,,,j,1,0.5923088330309838,,,,,,,,,,,,,,,,,,,,,,,,,,,,,,,101,001,2021_Sep_15_1145,joplin1,2021.2.3,60.13046826144607,
_train_cond.csv,0 0 1 0 1 1 0 1 0 0,6,categoryA,f,,,0,1,1,0,1,12,26,2,,,,,,,,,,,,,,,,,,,f,1,0.958840916864574,,,,,,,,,,,,,,,,,,,,,,,,,,,,,,,101,001,2021_Sep_15_1145,joplin1,2021.2.3,60.13046826144607,
_train_cond.csv,1 1 1 0 1 1 0 1 1 1,2,categoryB,j,,,0,1,1,0,1,13,27,11,,,,,,,,,,,,,,,,,,,j,1,0.6622055841144174,,,,,,,,,,,,,,,,,,,,,,,,,,,,,,,101,001,2021_Sep_15_1145,joplin1,2021.2.3,60.13046826144607,
_train_cond.csv,1 0 1 1 1 1 1 1 0 1,2,categoryB,j,,,0,1,1,0,2,0,28,8,,,,,,,,,,,,,,,,,,,j,1,0.6019477499648929,,,,,,,,,,,,,,,,,,,,,,,,,,,,,,,101,001,2021_Sep_15_1145,joplin1,2021.2.3,60.13046826144607,
_train_cond.csv,0 1 0 0 0 0 0 0 1 0,8,categoryA,f,,,0,1,1,0,2,1,29,1,,,,,,,,,,,,,,,,,,,f,1,0.5813911252189428,,,,,,,,,,,,,,,,,,,,,,,,,,,,,,,101,001,2021_Sep_15_1145,joplin1,2021.2.3,60.13046826144607,
_train_cond.csv,0 0 1 1 1 1 1 1 0 0,4,categoryB,j,,,0,1,1,0,2,2,30,13,,,,,,,,,,,,,,,,,,,j,1,0.46007066685706377,,,,,,,,,,,,,,,,,,,,,,,,,,,,,,,101,001,2021_Sep_15_1145,joplin1,2021.2.3,60.13046826144607,
_train_cond.csv,1 1 0 1 1 1 1 0 1 1,2,categoryB,j,,,0,1,1,0,2,3,31,12,,,,,,,,,,,,,,,,,,,j,1,0.38260529190301895,,,,,,,,,,,,,,,,,,,,,,,,,,,,,,,101,001,2021_Sep_15_1145,joplin1,2021.2.3,60.13046826144607,
_train_cond.csv,1 1 1 0 1 1 0 1 1 1,2,categoryB,j,,,0,1,1,0,2,4,32,11,,,,,,,,,,,,,,,,,,,j,1,0.5819733329117298,,,,,,,,,,,,,,,,,,,,,,,,,,,,,,,101,001,2021_Sep_15_1145,joplin1,2021.2.3,60.13046826144607,
_train_cond.csv,1 1 1 0 0 0 0 1 1 1,4,categoryB,j,,,0,1,1,0,2,5,33,10,,,,,,,,,,,,,,,,,,,f,0,0.6534084158483893,,,,,,,,,,,,,,,,,,,,,,,,,,,,,,,101,001,2021_Sep_15_1145,joplin1,2021.2.3,60.13046826144607,
_train_cond.csv,1 1 0 0 0 0 0 0 1 1,6,categoryA,f,,,0,1,1,0,2,6,34,6,,,,,,,,,,,,,,,,,,,j,0,0.969542833045125,,,,,,,,,,,,,,,,,,,,,,,,,,,,,,,101,001,2021_Sep_15_1145,joplin1,2021.2.3,60.13046826144607,
_train_cond.csv,0 0 1 0 1 1 0 1 0 0,6,categoryA,f,,,0,1,1,0,2,7,35,2,,,,,,,,,,,,,,,,,,,f,1,0.7921142498962581,,,,,,,,,,,,,,,,,,,,,,,,,,,,,,,101,001,2021_Sep_15_1145,joplin1,2021.2.3,60.13046826144607,
_train_cond.csv,0 0 0 1 0 0 1 0 0 0,8,categoryA,f,,,0,1,1,0,2,8,36,4,,,,,,,,,,,,,,,,,,,f,1,0.5338902089279145,,,,,,,,,,,,,,,,,,,,,,,,,,,,,,,101,001,2021_Sep_15_1145,joplin1,2021.2.3,60.13046826144607,
_train_cond.csv,0 0 1 0 0 0 0 1 0 0,8,categoryA,f,,,0,1,1,0,2,9,37,5,,,,,,,,,,,,,,,,,,,f,1,0.5906734999734908,,,,,,,,,,,,,,,,,,,,,,,,,,,,,,,101,001,2021_Sep_15_1145,joplin1,2021.2.3,60.13046826144607,
_train_cond.csv,1 0 0 0 0 0 0 0 0 1,8,categoryA,f,,,0,1,1,0,2,10,38,0,,,,,,,,,,,,,,,,,,,f,1,0.43725520884618163,,,,,,,,,,,,,,,,,,,,,,,,,,,,,,,101,001,2021_Sep_15_1145,joplin1,2021.2.3,60.13046826144607,
_train_cond.csv,1 1 0 1 0 0 1 0 1 1,4,categoryB,j,,,0,1,1,0,2,11,39,9,,,,,,,,,,,,,,,,,,,f,0,0.36231316602788866,,,,,,,,,,,,,,,,,,,,,,,,,,,,,,,101,001,2021_Sep_15_1145,joplin1,2021.2.3,60.13046826144607,
_train_cond.csv,0 1 1 1 1 1 1 1 1 0,2,categoryB,j,,,0,1,1,0,2,12,40,7,,,,,,,,,,,,,,,,,,,f,0,0.6662118749227375,,,,,,,,,,,,,,,,,,,,,,,,,,,,,,,101,001,2021_Sep_15_1145,joplin1,2021.2.3,60.13046826144607,
_train_cond.csv,0 0 0 1 1 1 1 0 0 0,6,categoryA,f,,,0,1,1,0,2,13,41,3,,,,,,,,,,,,,,,,,,,j,0,0.7092062081210315,,,,,,,,,,,,,,,,,,,,,,,,,,,,,,,101,001,2021_Sep_15_1145,joplin1,2021.2.3,60.13046826144607,
_train_cond.csv,,,,,,,0,1,1,0,,,,,,,,,,,,,,,,,,,,,,,,,,space,5.607646750053391,,,,,,,,,,,,,,,,,,,,,,,,,,,,,101,001,2021_Sep_15_1145,joplin1,2021.2.3,60.13046826144607,
_train_cond.csv,0 0 1 0 1 1 0 1 0 0,6,categoryA,f,,,0,2,2,5,0,0,0,2,,,,,,,,,,,,,,,,,,,f,1,0.8340154169127345,,,,,,,,,,,,,,,,,,,,,,,,,,,,,,,101,001,2021_Sep_15_1145,joplin1,2021.2.3,60.13046826144607,
_train_cond.csv,0 1 0 0 0 0 0 0 1 0,8,categoryA,f,,,0,2,2,5,0,1,1,1,,,,,,,,,,,,,,,,,,,f,1,0.4302250000182539,,,,,,,,,,,,,,,,,,,,,,,,,,,,,,,101,001,2021_Sep_15_1145,joplin1,2021.2.3,60.13046826144607,
_train_cond.csv,1 1 1 0 0 0 0 1 1 1,4,categoryB,j,,,0,2,2,5,0,2,2,10,,,,,,,,,,,,,,,,,,,f,0,0.4191337919328362,,,,,,,,,,,,,,,,,,,,,,,,,,,,,,,101,001,2021_Sep_15_1145,joplin1,2021.2.3,60.13046826144607,
_train_cond.csv,1 0 1 1 1 1 1 1 0 1,2,categoryB,j,,,0,2,2,5,0,3,3,8,,,,,,,,,,,,,,,,,,,j,1,0.45586016587913036,,,,,,,,,,,,,,,,,,,,,,,,,,,,,,,101,001,2021_Sep_15_1145,joplin1,2021.2.3,60.13046826144607,
_train_cond.csv,0 1 1 1 1 1 1 1 1 0,2,categoryB,j,,,0,2,2,5,0,4,4,7,,,,,,,,,,,,,,,,,,,f,0,0.3877825830131769,,,,,,,,,,,,,,,,,,,,,,,,,,,,,,,101,001,2021_Sep_15_1145,joplin1,2021.2.3,60.13046826144607,
_train_cond.csv,0 0 1 0 0 0 0 1 0 0,8,categoryA,f,,,0,2,2,5,0,5,5,5,,,,,,,,,,,,,,,,,,,f,1,0.3937727080192417,,,,,,,,,,,,,,,,,,,,,,,,,,,,,,,101,001,2021_Sep_15_1145,joplin1,2021.2.3,60.13046826144607,
_train_cond.csv,1 1 0 1 1 1 1 0 1 1,2,categoryB,j,,,0,2,2,5,0,6,6,12,,,,,,,,,,,,,,,,,,,j,1,0.5736988331191242,,,,,,,,,,,,,,,,,,,,,,,,,,,,,,,101,001,2021_Sep_15_1145,joplin1,2021.2.3,60.13046826144607,
_train_cond.csv,0 0 1 1 1 1 1 1 0 0,4,categoryB,j,,,0,2,2,5,0,7,7,13,,,,,,,,,,,,,,,,,,,j,1,0.292836083099246,,,,,,,,,,,,,,,,,,,,,,,,,,,,,,,101,001,2021_Sep_15_1145,joplin1,2021.2.3,60.13046826144607,
_train_cond.csv,1 1 0 1 0 0 1 0 1 1,4,categoryB,j,,,0,2,2,5,0,8,8,9,,,,,,,,,,,,,,,,,,,f,0,0.4709989579860121,,,,,,,,,,,,,,,,,,,,,,,,,,,,,,,101,001,2021_Sep_15_1145,joplin1,2021.2.3,60.13046826144607,
_train_cond.csv,0 0 0 1 0 0 1 0 0 0,8,categoryA,f,,,0,2,2,5,0,9,9,4,,,,,,,,,,,,,,,,,,,f,1,0.6096490409690887,,,,,,,,,,,,,,,,,,,,,,,,,,,,,,,101,001,2021_Sep_15_1145,joplin1,2021.2.3,60.13046826144607,
_train_cond.csv,1 1 1 0 1 1 0 1 1 1,2,categoryB,j,,,0,2,2,5,0,10,10,11,,,,,,,,,,,,,,,,,,,j,1,0.6472089171875268,,,,,,,,,,,,,,,,,,,,,,,,,,,,,,,101,001,2021_Sep_15_1145,joplin1,2021.2.3,60.13046826144607,
_train_cond.csv,1 1 0 0 0 0 0 0 1 1,6,categoryA,f,,,0,2,2,5,0,11,11,6,,,,,,,,,,,,,,,,,,,j,0,0.7237867501098663,,,,,,,,,,,,,,,,,,,,,,,,,,,,,,,101,001,2021_Sep_15_1145,joplin1,2021.2.3,60.13046826144607,
_train_cond.csv,1 0 0 0 0 0 0 0 0 1,8,categoryA,f,,,0,2,2,5,0,12,12,0,,,,,,,,,,,,,,,,,,,f,1,0.46005829190835357,,,,,,,,,,,,,,,,,,,,,,,,,,,,,,,101,001,2021_Sep_15_1145,joplin1,2021.2.3,60.13046826144607,
_train_cond.csv,0 0 0 1 1 1 1 0 0 0,6,categoryA,f,,,0,2,2,5,0,13,13,3,,,,,,,,,,,,,,,,,,,j,0,0.4957550000399351,,,,,,,,,,,,,,,,,,,,,,,,,,,,,,,101,001,2021_Sep_15_1145,joplin1,2021.2.3,60.13046826144607,
_train_cond.csv,0 0 1 0 0 0 0 1 0 0,8,categoryA,f,,,0,2,2,5,1,0,14,5,,,,,,,,,,,,,,,,,,,f,1,0.2574637089855969,,,,,,,,,,,,,,,,,,,,,,,,,,,,,,,101,001,2021_Sep_15_1145,joplin1,2021.2.3,60.13046826144607,
_train_cond.csv,0 0 0 1 0 0 1 0 0 0,8,categoryA,f,,,0,2,2,5,1,1,15,4,,,,,,,,,,,,,,,,,,,f,1,0.46965950005687773,,,,,,,,,,,,,,,,,,,,,,,,,,,,,,,101,001,2021_Sep_15_1145,joplin1,2021.2.3,60.13046826144607,
_train_cond.csv,1 1 0 1 1 1 1 0 1 1,2,categoryB,j,,,0,2,2,5,1,2,16,12,,,,,,,,,,,,,,,,,,,j,1,0.48809795803390443,,,,,,,,,,,,,,,,,,,,,,,,,,,,,,,101,001,2021_Sep_15_1145,joplin1,2021.2.3,60.13046826144607,
_train_cond.csv,0 1 1 1 1 1 1 1 1 0,2,categoryB,j,,,0,2,2,5,1,3,17,7,,,,,,,,,,,,,,,,,,,j,1,0.5303395418450236,,,,,,,,,,,,,,,,,,,,,,,,,,,,,,,101,001,2021_Sep_15_1145,joplin1,2021.2.3,60.13046826144607,
_train_cond.csv,1 1 0 1 0 0 1 0 1 1,4,categoryB,j,,,0,2,2,5,1,4,18,9,,,,,,,,,,,,,,,,,,,f,0,0.3073574588634074,,,,,,,,,,,,,,,,,,,,,,,,,,,,,,,101,001,2021_Sep_15_1145,joplin1,2021.2.3,60.13046826144607,
_train_cond.csv,1 1 1 0 0 0 0 1 1 1,4,categoryB,j,,,0,2,2,5,1,5,19,10,,,,,,,,,,,,,,,,,,,j,1,0.13327116682194173,,,,,,,,,,,,,,,,,,,,,,,,,,,,,,,101,001,2021_Sep_15_1145,joplin1,2021.2.3,60.13046826144607,
_train_cond.csv,0 1 0 0 0 0 0 0 1 0,8,categoryA,f,,,0,2,2,5,1,6,20,1,,,,,,,,,,,,,,,,,,,j,0,0.3813257080037147,,,,,,,,,,,,,,,,,,,,,,,,,,,,,,,101,001,2021_Sep_15_1145,joplin1,2021.2.3,60.13046826144607,
_train_cond.csv,0 0 0 1 1 1 1 0 0 0,6,categoryA,f,,,0,2,2,5,1,7,21,3,,,,,,,,,,,,,,,,,,,j,0,0.3799744581338018,,,,,,,,,,,,,,,,,,,,,,,,,,,,,,,101,001,2021_Sep_15_1145,joplin1,2021.2.3,60.13046826144607,
_train_cond.csv,1 1 1 0 1 1 0 1 1 1,2,categoryB,j,,,0,2,2,5,1,8,22,11,,,,,,,,,,,,,,,,,,,j,1,0.3396070410963148,,,,,,,,,,,,,,,,,,,,,,,,,,,,,,,101,001,2021_Sep_15_1145,joplin1,2021.2.3,60.13046826144607,
_train_cond.csv,1 0 0 0 0 0 0 0 0 1,8,categoryA,f,,,0,2,2,5,1,9,23,0,,,,,,,,,,,,,,,,,,,f,1,0.3792561248410493,,,,,,,,,,,,,,,,,,,,,,,,,,,,,,,101,001,2021_Sep_15_1145,joplin1,2021.2.3,60.13046826144607,
_train_cond.csv,1 0 1 1 1 1 1 1 0 1,2,categoryB,j,,,0,2,2,5,1,10,24,8,,,,,,,,,,,,,,,,,,,j,1,0.36991133401170373,,,,,,,,,,,,,,,,,,,,,,,,,,,,,,,101,001,2021_Sep_15_1145,joplin1,2021.2.3,60.13046826144607,
_train_cond.csv,0 0 1 1 1 1 1 1 0 0,4,categoryB,j,,,0,2,2,5,1,11,25,13,,,,,,,,,,,,,,,,,,,j,1,0.8403758748900145,,,,,,,,,,,,,,,,,,,,,,,,,,,,,,,101,001,2021_Sep_15_1145,joplin1,2021.2.3,60.13046826144607,
_train_cond.csv,0 0 1 0 1 1 0 1 0 0,6,categoryA,f,,,0,2,2,5,1,12,26,2,,,,,,,,,,,,,,,,,,,j,0,0.3575450840871781,,,,,,,,,,,,,,,,,,,,,,,,,,,,,,,101,001,2021_Sep_15_1145,joplin1,2021.2.3,60.13046826144607,
_train_cond.csv,1 1 0 0 0 0 0 0 1 1,6,categoryA,f,,,0,2,2,5,1,13,27,6,,,,,,,,,,,,,,,,,,,j,0,0.4846274999435991,,,,,,,,,,,,,,,,,,,,,,,,,,,,,,,101,001,2021_Sep_15_1145,joplin1,2021.2.3,60.13046826144607,
_train_cond.csv,1 1 1 0 1 1 0 1 1 1,2,categoryB,j,,,0,2,2,5,2,0,28,11,,,,,,,,,,,,,,,,,,,j,1,0.35163399996235967,,,,,,,,,,,,,,,,,,,,,,,,,,,,,,,101,001,2021_Sep_15_1145,joplin1,2021.2.3,60.13046826144607,
_train_cond.csv,0 0 1 0 1 1 0 1 0 0,6,categoryA,f,,,0,2,2,5,2,1,29,2,,,,,,,,,,,,,,,,,,,j,0,0.31962562492117286,,,,,,,,,,,,,,,,,,,,,,,,,,,,,,,101,001,2021_Sep_15_1145,joplin1,2021.2.3,60.13046826144607,
_train_cond.csv,0 0 1 0 0 0 0 1 0 0,8,categoryA,f,,,0,2,2,5,2,2,30,5,,,,,,,,,,,,,,,,,,,f,1,0.5274911250453442,,,,,,,,,,,,,,,,,,,,,,,,,,,,,,,101,001,2021_Sep_15_1145,joplin1,2021.2.3,60.13046826144607,
_train_cond.csv,1 1 0 0 0 0 0 0 1 1,6,categoryA,f,,,0,2,2,5,2,3,31,6,,,,,,,,,,,,,,,,,,,j,0,1.0480834590271115,,,,,,,,,,,,,,,,,,,,,,,,,,,,,,,101,001,2021_Sep_15_1145,joplin1,2021.2.3,60.13046826144607,
_train_cond.csv,1 1 0 1 0 0 1 0 1 1,4,categoryB,j,,,0,2,2,5,2,4,32,9,,,,,,,,,,,,,,,,,,,f,0,0.020623083924874663,,,,,,,,,,,,,,,,,,,,,,,,,,,,,,,101,001,2021_Sep_15_1145,joplin1,2021.2.3,60.13046826144607,
_train_cond.csv,1 0 0 0 0 0 0 0 0 1,8,categoryA,f,,,0,2,2,5,2,5,33,0,,,,,,,,,,,,,,,,,,,f,1,0.344472749857232,,,,,,,,,,,,,,,,,,,,,,,,,,,,,,,101,001,2021_Sep_15_1145,joplin1,2021.2.3,60.13046826144607,
_train_cond.csv,0 1 0 0 0 0 0 0 1 0,8,categoryA,f,,,0,2,2,5,2,6,34,1,,,,,,,,,,,,,,,,,,,j,0,0.5286342080216855,,,,,,,,,,,,,,,,,,,,,,,,,,,,,,,101,001,2021_Sep_15_1145,joplin1,2021.2.3,60.13046826144607,
_train_cond.csv,0 0 0 1 0 0 1 0 0 0,8,categoryA,f,,,0,2,2,5,2,7,35,4,,,,,,,,,,,,,,,,,,,f,1,0.4413202500436455,,,,,,,,,,,,,,,,,,,,,,,,,,,,,,,101,001,2021_Sep_15_1145,joplin1,2021.2.3,60.13046826144607,
_train_cond.csv,1 1 1 0 0 0 0 1 1 1,4,categoryB,j,,,0,2,2,5,2,8,36,10,,,,,,,,,,,,,,,,,,,f,0,0.12468445906415582,,,,,,,,,,,,,,,,,,,,,,,,,,,,,,,101,001,2021_Sep_15_1145,joplin1,2021.2.3,60.13046826144607,
_train_cond.csv,0 0 0 1 1 1 1 0 0 0,6,categoryA,f,,,0,2,2,5,2,9,37,3,,,,,,,,,,,,,,,,,,,j,0,0.5413245828822255,,,,,,,,,,,,,,,,,,,,,,,,,,,,,,,101,001,2021_Sep_15_1145,joplin1,2021.2.3,60.13046826144607,
_train_cond.csv,0 1 1 1 1 1 1 1 1 0,2,categoryB,j,,,0,2,2,5,2,10,38,7,,,,,,,,,,,,,,,,,,,j,1,0.4601280000060797,,,,,,,,,,,,,,,,,,,,,,,,,,,,,,,101,001,2021_Sep_15_1145,joplin1,2021.2.3,60.13046826144607,
_train_cond.csv,0 0 1 1 1 1 1 1 0 0,4,categoryB,j,,,0,2,2,5,2,11,39,13,,,,,,,,,,,,,,,,,,,j,1,0.8473221659660339,,,,,,,,,,,,,,,,,,,,,,,,,,,,,,,101,001,2021_Sep_15_1145,joplin1,2021.2.3,60.13046826144607,
_train_cond.csv,1 0 1 1 1 1 1 1 0 1,2,categoryB,j,,,0,2,2,5,2,12,40,8,,,,,,,,,,,,,,,,,,,j,1,0.35551804187707603,,,,,,,,,,,,,,,,,,,,,,,,,,,,,,,101,001,2021_Sep_15_1145,joplin1,2021.2.3,60.13046826144607,
_train_cond.csv,1 1 0 1 1 1 1 0 1 1,2,categoryB,j,,,0,2,2,5,2,13,41,12,,,,,,,,,,,,,,,,,,,j,1,0.7152904169633985,,,,,,,,,,,,,,,,,,,,,,,,,,,,,,,101,001,2021_Sep_15_1145,joplin1,2021.2.3,60.13046826144607,
_train_cond.csv,,,,,,,0,2,2,5,,,,,,,,,,,,,,,,,,,,,,,,,,space,6.285310124978423,,,,,,,,,,,,,,,,,,,,,,,,,,,,,101,001,2021_Sep_15_1145,joplin1,2021.2.3,60.13046826144607,
_train_cond.csv,1 0 0 0 0 0 0 0 0 1,8,categoryA,f,,,0,3,3,7,0,0,0,0,,,,,,,,,,,,,,,,,,,f,1,0.05252879112958908,,,,,,,,,,,,,,,,,,,,,,,,,,,,,,,101,001,2021_Sep_15_1145,joplin1,2021.2.3,60.13046826144607,
_train_cond.csv,1 0 1 1 1 1 1 1 0 1,2,categoryB,j,,,0,3,3,7,0,1,1,8,,,,,,,,,,,,,,,,,,,j,1,0.32794125005602837,,,,,,,,,,,,,,,,,,,,,,,,,,,,,,,101,001,2021_Sep_15_1145,joplin1,2021.2.3,60.13046826144607,
_train_cond.csv,0 0 1 0 0 0 0 1 0 0,8,categoryA,f,,,0,3,3,7,0,2,2,5,,,,,,,,,,,,,,,,,,,f,1,0.5596842498052865,,,,,,,,,,,,,,,,,,,,,,,,,,,,,,,101,001,2021_Sep_15_1145,joplin1,2021.2.3,60.13046826144607,
_train_cond.csv,0 1 1 1 1 1 1 1 1 0,2,categoryB,j,,,0,3,3,7,0,3,3,7,,,,,,,,,,,,,,,,,,,f,0,0.6784549159929156,,,,,,,,,,,,,,,,,,,,,,,,,,,,,,,101,001,2021_Sep_15_1145,joplin1,2021.2.3,60.13046826144607,
_train_cond.csv,1 1 0 1 1 1 1 0 1 1,2,categoryB,j,,,0,3,3,7,0,4,4,12,,,,,,,,,,,,,,,,,,,j,1,0.3297915831208229,,,,,,,,,,,,,,,,,,,,,,,,,,,,,,,101,001,2021_Sep_15_1145,joplin1,2021.2.3,60.13046826144607,
_train_cond.csv,0 1 0 0 0 0 0 0 1 0,8,categoryA,f,,,0,3,3,7,0,5,5,1,,,,,,,,,,,,,,,,,,,f,1,0.6423983750864863,,,,,,,,,,,,,,,,,,,,,,,,,,,,,,,101,001,2021_Sep_15_1145,joplin1,2021.2.3,60.13046826144607,
_train_cond.csv,0 0 1 0 1 1 0 1 0 0,6,categoryA,f,,,0,3,3,7,0,6,6,2,,,,,,,,,,,,,,,,,,,j,0,0.7423165829386562,,,,,,,,,,,,,,,,,,,,,,,,,,,,,,,101,001,2021_Sep_15_1145,joplin1,2021.2.3,60.13046826144607,
_train_cond.csv,0 0 1 1 1 1 1 1 0 0,4,categoryB,j,,,0,3,3,7,0,7,7,13,,,,,,,,,,,,,,,,,,,j,1,0.5900599590968341,,,,,,,,,,,,,,,,,,,,,,,,,,,,,,,101,001,2021_Sep_15_1145,joplin1,2021.2.3,60.13046826144607,
_train_cond.csv,0 0 0 1 1 1 1 0 0 0,6,categoryA,f,,,0,3,3,7,0,8,8,3,,,,,,,,,,,,,,,,,,,j,0,0.41283916705287993,,,,,,,,,,,,,,,,,,,,,,,,,,,,,,,101,001,2021_Sep_15_1145,joplin1,2021.2.3,60.13046826144607,
_train_cond.csv,0 0 0 1 0 0 1 0 0 0,8,categoryA,f,,,0,3,3,7,0,9,9,4,,,,,,,,,,,,,,,,,,,f,1,0.656252000015229,,,,,,,,,,,,,,,,,,,,,,,,,,,,,,,101,001,2021_Sep_15_1145,joplin1,2021.2.3,60.13046826144607,
_train_cond.csv,1 1 1 0 0 0 0 1 1 1,4,categoryB,j,,,0,3,3,7,0,10,10,10,,,,,,,,,,,,,,,,,,,j,1,0.6679451251402497,,,,,,,,,,,,,,,,,,,,,,,,,,,,,,,101,001,2021_Sep_15_1145,joplin1,2021.2.3,60.13046826144607,
_train_cond.csv,1 1 0 1 0 0 1 0 1 1,4,categoryB,j,,,0,3,3,7,0,11,11,9,,,,,,,,,,,,,,,,,,,f,0,0.6161659169010818,,,,,,,,,,,,,,,,,,,,,,,,,,,,,,,101,001,2021_Sep_15_1145,joplin1,2021.2.3,60.13046826144607,
_train_cond.csv,1 1 1 0 1 1 0 1 1 1,2,categoryB,j,,,0,3,3,7,0,12,12,11,,,,,,,,,,,,,,,,,,,j,1,0.5649675829336047,,,,,,,,,,,,,,,,,,,,,,,,,,,,,,,101,001,2021_Sep_15_1145,joplin1,2021.2.3,60.13046826144607,
_train_cond.csv,1 1 0 0 0 0 0 0 1 1,6,categoryA,f,,,0,3,3,7,0,13,13,6,,,,,,,,,,,,,,,,,,,j,0,0.6284487089142203,,,,,,,,,,,,,,,,,,,,,,,,,,,,,,,101,001,2021_Sep_15_1145,joplin1,2021.2.3,60.13046826144607,
_train_cond.csv,0 0 1 0 0 0 0 1 0 0,8,categoryA,f,,,0,3,3,7,1,0,14,5,,,,,,,,,,,,,,,,,,,f,1,0.41594091593287885,,,,,,,,,,,,,,,,,,,,,,,,,,,,,,,101,001,2021_Sep_15_1145,joplin1,2021.2.3,60.13046826144607,
_train_cond.csv,1 1 0 0 0 0 0 0 1 1,6,categoryA,f,,,0,3,3,7,1,1,15,6,,,,,,,,,,,,,,,,,,,j,0,0.5411955420859158,,,,,,,,,,,,,,,,,,,,,,,,,,,,,,,101,001,2021_Sep_15_1145,joplin1,2021.2.3,60.13046826144607,
_train_cond.csv,0 1 1 1 1 1 1 1 1 0,2,categoryB,j,,,0,3,3,7,1,2,16,7,,,,,,,,,,,,,,,,,,,j,1,0.7083586249500513,,,,,,,,,,,,,,,,,,,,,,,,,,,,,,,101,001,2021_Sep_15_1145,joplin1,2021.2.3,60.13046826144607,
_train_cond.csv,0 0 1 0 1 1 0 1 0 0,6,categoryA,f,,,0,3,3,7,1,3,17,2,,,,,,,,,,,,,,,,,,,j,0,0.47846500016748905,,,,,,,,,,,,,,,,,,,,,,,,,,,,,,,101,001,2021_Sep_15_1145,joplin1,2021.2.3,60.13046826144607,
_train_cond.csv,1 1 0 1 1 1 1 0 1 1,2,categoryB,j,,,0,3,3,7,1,4,18,12,,,,,,,,,,,,,,,,,,,j,1,0.5858374580275267,,,,,,,,,,,,,,,,,,,,,,,,,,,,,,,101,001,2021_Sep_15_1145,joplin1,2021.2.3,60.13046826144607,
_train_cond.csv,1 0 1 1 1 1 1 1 0 1,2,categoryB,j,,,0,3,3,7,1,5,19,8,,,,,,,,,,,,,,,,,,,j,1,0.3443533340469003,,,,,,,,,,,,,,,,,,,,,,,,,,,,,,,101,001,2021_Sep_15_1145,joplin1,2021.2.3,60.13046826144607,
_train_cond.csv,0 0 0 1 0 0 1 0 0 0,8,categoryA,f,,,0,3,3,7,1,6,20,4,,,,,,,,,,,,,,,,,,,f,1,0.5774019160307944,,,,,,,,,,,,,,,,,,,,,,,,,,,,,,,101,001,2021_Sep_15_1145,joplin1,2021.2.3,60.13046826144607,
_train_cond.csv,0 1 0 0 0 0 0 0 1 0,8,categoryA,f,,,0,3,3,7,1,7,21,1,,,,,,,,,,,,,,,,,,,j,0,0.44025474996306,,,,,,,,,,,,,,,,,,,,,,,,,,,,,,,101,001,2021_Sep_15_1145,joplin1,2021.2.3,60.13046826144607,
_train_cond.csv,1 1 0 1 0 0 1 0 1 1,4,categoryB,j,,,0,3,3,7,1,8,22,9,,,,,,,,,,,,,,,,,,,j,1,0.5495961250271648,,,,,,,,,,,,,,,,,,,,,,,,,,,,,,,101,001,2021_Sep_15_1145,joplin1,2021.2.3,60.13046826144607,
_train_cond.csv,1 1 1 0 0 0 0 1 1 1,4,categoryB,j,,,0,3,3,7,1,9,23,10,,,,,,,,,,,,,,,,,,,j,1,0.4835335419047624,,,,,,,,,,,,,,,,,,,,,,,,,,,,,,,101,001,2021_Sep_15_1145,joplin1,2021.2.3,60.13046826144607,
_train_cond.csv,1 0 0 0 0 0 0 0 0 1,8,categoryA,f,,,0,3,3,7,1,10,24,0,,,,,,,,,,,,,,,,,,,f,1,0.5095398749690503,,,,,,,,,,,,,,,,,,,,,,,,,,,,,,,101,001,2021_Sep_15_1145,joplin1,2021.2.3,60.13046826144607,
_train_cond.csv,1 1 1 0 1 1 0 1 1 1,2,categoryB,j,,,0,3,3,7,1,11,25,11,,,,,,,,,,,,,,,,,,,j,1,0.42042145784944296,,,,,,,,,,,,,,,,,,,,,,,,,,,,,,,101,001,2021_Sep_15_1145,joplin1,2021.2.3,60.13046826144607,
_train_cond.csv,0 0 0 1 1 1 1 0 0 0,6,categoryA,f,,,0,3,3,7,1,12,26,3,,,,,,,,,,,,,,,,,,,j,0,0.9369960830081254,,,,,,,,,,,,,,,,,,,,,,,,,,,,,,,101,001,2021_Sep_15_1145,joplin1,2021.2.3,60.13046826144607,
_train_cond.csv,0 0 1 1 1 1 1 1 0 0,4,categoryB,j,,,0,3,3,7,1,13,27,13,,,,,,,,,,,,,,,,,,,j,1,0.7114105839282274,,,,,,,,,,,,,,,,,,,,,,,,,,,,,,,101,001,2021_Sep_15_1145,joplin1,2021.2.3,60.13046826144607,
_train_cond.csv,1 1 0 0 0 0 0 0 1 1,6,categoryA,f,,,0,3,3,7,2,0,28,6,,,,,,,,,,,,,,,,,,,j,0,0.5603601250331849,,,,,,,,,,,,,,,,,,,,,,,,,,,,,,,101,001,2021_Sep_15_1145,joplin1,2021.2.3,60.13046826144607,
_train_cond.csv,1 1 0 1 1 1 1 0 1 1,2,categoryB,j,,,0,3,3,7,2,1,29,12,,,,,,,,,,,,,,,,,,,j,1,0.38307774998247623,,,,,,,,,,,,,,,,,,,,,,,,,,,,,,,101,001,2021_Sep_15_1145,joplin1,2021.2.3,60.13046826144607,
_train_cond.csv,1 0 0 0 0 0 0 0 0 1,8,categoryA,f,,,0,3,3,7,2,2,30,0,,,,,,,,,,,,,,,,,,,f,1,0.06225720816291869,,,,,,,,,,,,,,,,,,,,,,,,,,,,,,,101,001,2021_Sep_15_1145,joplin1,2021.2.3,60.13046826144607,
_train_cond.csv,0 1 0 0 0 0 0 0 1 0,8,categoryA,f,,,0,3,3,7,2,3,31,1,,,,,,,,,,,,,,,,,,,j,0,0.6638175421394408,,,,,,,,,,,,,,,,,,,,,,,,,,,,,,,101,001,2021_Sep_15_1145,joplin1,2021.2.3,60.13046826144607,
_train_cond.csv,0 1 1 1 1 1 1 1 1 0,2,categoryB,j,,,0,3,3,7,2,4,32,7,,,,,,,,,,,,,,,,,,,j,1,0.73811504105106,,,,,,,,,,,,,,,,,,,,,,,,,,,,,,,101,001,2021_Sep_15_1145,joplin1,2021.2.3,60.13046826144607,
_train_cond.csv,0 0 1 1 1 1 1 1 0 0,4,categoryB,j,,,0,3,3,7,2,5,33,13,,,,,,,,,,,,,,,,,,,j,1,0.6508244581054896,,,,,,,,,,,,,,,,,,,,,,,,,,,,,,,101,001,2021_Sep_15_1145,joplin1,2021.2.3,60.13046826144607,
_train_cond.csv,1 1 0 1 0 0 1 0 1 1,4,categoryB,j,,,0,3,3,7,2,6,34,9,,,,,,,,,,,,,,,,,,,f,0,0.5332445420790464,,,,,,,,,,,,,,,,,,,,,,,,,,,,,,,101,001,2021_Sep_15_1145,joplin1,2021.2.3,60.13046826144607,
_train_cond.csv,0 0 0 1 1 1 1 0 0 0,6,categoryA,f,,,0,3,3,7,2,7,35,3,,,,,,,,,,,,,,,,,,,f,1,0.45336658298037946,,,,,,,,,,,,,,,,,,,,,,,,,,,,,,,101,001,2021_Sep_15_1145,joplin1,2021.2.3,60.13046826144607,
_train_cond.csv,1 1 1 0 1 1 0 1 1 1,2,categoryB,j,,,0,3,3,7,2,8,36,11,,,,,,,,,,,,,,,,,,,j,1,0.42453879211097956,,,,,,,,,,,,,,,,,,,,,,,,,,,,,,,101,001,2021_Sep_15_1145,joplin1,2021.2.3,60.13046826144607,
_train_cond.csv,0 0 0 1 0 0 1 0 0 0,8,categoryA,f,,,0,3,3,7,2,9,37,4,,,,,,,,,,,,,,,,,,,f,1,0.4926010840572417,,,,,,,,,,,,,,,,,,,,,,,,,,,,,,,101,001,2021_Sep_15_1145,joplin1,2021.2.3,60.13046826144607,
_train_cond.csv,1 1 1 0 0 0 0 1 1 1,4,categoryB,j,,,0,3,3,7,2,10,38,10,,,,,,,,,,,,,,,,,,,j,1,0.6619168331380934,,,,,,,,,,,,,,,,,,,,,,,,,,,,,,,101,001,2021_Sep_15_1145,joplin1,2021.2.3,60.13046826144607,
_train_cond.csv,0 0 1 0 1 1 0 1 0 0,6,categoryA,f,,,0,3,3,7,2,11,39,2,,,,,,,,,,,,,,,,,,,j,0,0.7046159589663148,,,,,,,,,,,,,,,,,,,,,,,,,,,,,,,101,001,2021_Sep_15_1145,joplin1,2021.2.3,60.13046826144607,
_train_cond.csv,0 0 1 0 0 0 0 1 0 0,8,categoryA,f,,,0,3,3,7,2,12,40,5,,,,,,,,,,,,,,,,,,,f,1,0.5128390830941498,,,,,,,,,,,,,,,,,,,,,,,,,,,,,,,101,001,2021_Sep_15_1145,joplin1,2021.2.3,60.13046826144607,
_train_cond.csv,1 0 1 1 1 1 1 1 0 1,2,categoryB,j,,,0,3,3,7,2,13,41,8,,,,,,,,,,,,,,,,,,,j,1,0.32968041696585715,,,,,,,,,,,,,,,,,,,,,,,,,,,,,,,101,001,2021_Sep_15_1145,joplin1,2021.2.3,60.13046826144607,
_train_cond.csv,,,,,,,0,3,3,7,,,,,,,,,,,,,,,,,,,,,,,,,,space,7.8349244999699295,,,,,,,,,,,,,,,,,,,,,,,,,,,,,101,001,2021_Sep_15_1145,joplin1,2021.2.3,60.13046826144607,
_train_cond.csv,0 0 0 1 1 1 1 0 0 0,6,categoryA,f,,,0,4,4,1,0,0,0,3,,,,,,,,,,,,,,,,,,,j,0,0.0055079159792512655,,,,,,,,,,,,,,,,,,,,,,,,,,,,,,,101,001,2021_Sep_15_1145,joplin1,2021.2.3,60.13046826144607,
_train_cond.csv,1 1 0 1 1 1 1 0 1 1,2,categoryB,j,,,0,4,4,1,0,1,1,12,,,,,,,,,,,,,,,,,,,j,1,0.06680474989116192,,,,,,,,,,,,,,,,,,,,,,,,,,,,,,,101,001,2021_Sep_15_1145,joplin1,2021.2.3,60.13046826144607,
_train_cond.csv,0 0 1 0 1 1 0 1 0 0,6,categoryA,f,,,0,4,4,1,0,2,2,2,,,,,,,,,,,,,,,,,,,j,0,0.10963179217651486,,,,,,,,,,,,,,,,,,,,,,,,,,,,,,,101,001,2021_Sep_15_1145,joplin1,2021.2.3,60.13046826144607,
_train_cond.csv,0 0 0 1 0 0 1 0 0 0,8,categoryA,f,,,0,4,4,1,0,3,3,4,,,,,,,,,,,,,,,,,,,f,1,0.19024499994702637,,,,,,,,,,,,,,,,,,,,,,,,,,,,,,,101,001,2021_Sep_15_1145,joplin1,2021.2.3,60.13046826144607,
_train_cond.csv,1 1 0 1 0 0 1 0 1 1,4,categoryB,j,,,0,4,4,1,0,4,4,9,,,,,,,,,,,,,,,,,,,j,1,0.45261100004427135,,,,,,,,,,,,,,,,,,,,,,,,,,,,,,,101,001,2021_Sep_15_1145,joplin1,2021.2.3,60.13046826144607,
_train_cond.csv,1 0 1 1 1 1 1 1 0 1,2,categoryB,j,,,0,4,4,1,0,5,5,8,,,,,,,,,,,,,,,,,,,j,1,0.21583033306524158,,,,,,,,,,,,,,,,,,,,,,,,,,,,,,,101,001,2021_Sep_15_1145,joplin1,2021.2.3,60.13046826144607,
_train_cond.csv,0 1 1 1 1 1 1 1 1 0,2,categoryB,j,,,0,4,4,1,0,6,6,7,,,,,,,,,,,,,,,,,,,f,0,0.7721879170276225,,,,,,,,,,,,,,,,,,,,,,,,,,,,,,,101,001,2021_Sep_15_1145,joplin1,2021.2.3,60.13046826144607,
_train_cond.csv,1 1 0 0 0 0 0 0 1 1,6,categoryA,f,,,0,4,4,1,0,7,7,6,,,,,,,,,,,,,,,,,,,j,0,0.8352128339465708,,,,,,,,,,,,,,,,,,,,,,,,,,,,,,,101,001,2021_Sep_15_1145,joplin1,2021.2.3,60.13046826144607,
_train_cond.csv,0 0 1 1 1 1 1 1 0 0,4,categoryB,j,,,0,4,4,1,0,8,8,13,,,,,,,,,,,,,,,,,,,f,0,0.3438411250244826,,,,,,,,,,,,,,,,,,,,,,,,,,,,,,,101,001,2021_Sep_15_1145,joplin1,2021.2.3,60.13046826144607,
_train_cond.csv,1 1 1 0 1 1 0 1 1 1,2,categoryB,j,,,0,4,4,1,0,9,9,11,,,,,,,,,,,,,,,,,,,j,1,0.39885029196739197,,,,,,,,,,,,,,,,,,,,,,,,,,,,,,,101,001,2021_Sep_15_1145,joplin1,2021.2.3,60.13046826144607,
_train_cond.csv,1 0 0 0 0 0 0 0 0 1,8,categoryA,f,,,0,4,4,1,0,10,10,0,,,,,,,,,,,,,,,,,,,f,1,0.5940466250758618,,,,,,,,,,,,,,,,,,,,,,,,,,,,,,,101,001,2021_Sep_15_1145,joplin1,2021.2.3,60.13046826144607,
_train_cond.csv,1 1 1 0 0 0 0 1 1 1,4,categoryB,j,,,0,4,4,1,0,11,11,10,,,,,,,,,,,,,,,,,,,j,1,0.4957950417883694,,,,,,,,,,,,,,,,,,,,,,,,,,,,,,,101,001,2021_Sep_15_1145,joplin1,2021.2.3,60.13046826144607,
_train_cond.csv,0 1 0 0 0 0 0 0 1 0,8,categoryA,f,,,0,4,4,1,0,12,12,1,,,,,,,,,,,,,,,,,,,j,0,0.6165158748626709,,,,,,,,,,,,,,,,,,,,,,,,,,,,,,,101,001,2021_Sep_15_1145,joplin1,2021.2.3,60.13046826144607,
_train_cond.csv,0 0 1 0 0 0 0 1 0 0,8,categoryA,f,,,0,4,4,1,0,13,13,5,,,,,,,,,,,,,,,,,,,f,1,0.6765984590165317,,,,,,,,,,,,,,,,,,,,,,,,,,,,,,,101,001,2021_Sep_15_1145,joplin1,2021.2.3,60.13046826144607,
_train_cond.csv,0 1 0 0 0 0 0 0 1 0,8,categoryA,f,,,0,4,4,1,1,0,14,1,,,,,,,,,,,,,,,,,,,j,0,0.7350278338417411,,,,,,,,,,,,,,,,,,,,,,,,,,,,,,,101,001,2021_Sep_15_1145,joplin1,2021.2.3,60.13046826144607,
_train_cond.csv,1 0 1 1 1 1 1 1 0 1,2,categoryB,j,,,0,4,4,1,1,1,15,8,,,,,,,,,,,,,,,,,,,j,1,0.26309037511236966,,,,,,,,,,,,,,,,,,,,,,,,,,,,,,,101,001,2021_Sep_15_1145,joplin1,2021.2.3,60.13046826144607,
_train_cond.csv,0 0 0 1 1 1 1 0 0 0,6,categoryA,f,,,0,4,4,1,1,2,16,3,,,,,,,,,,,,,,,,,,,f,1,0.6498194590676576,,,,,,,,,,,,,,,,,,,,,,,,,,,,,,,101,001,2021_Sep_15_1145,joplin1,2021.2.3,60.13046826144607,
_train_cond.csv,1 1 0 0 0 0 0 0 1 1,6,categoryA,f,,,0,4,4,1,1,3,17,6,,,,,,,,,,,,,,,,,,,j,0,0.686082208994776,,,,,,,,,,,,,,,,,,,,,,,,,,,,,,,101,001,2021_Sep_15_1145,joplin1,2021.2.3,60.13046826144607,
_train_cond.csv,1 0 0 0 0 0 0 0 0 1,8,categoryA,f,,,0,4,4,1,1,4,18,0,,,,,,,,,,,,,,,,,,,f,1,0.687697083922103,,,,,,,,,,,,,,,,,,,,,,,,,,,,,,,101,001,2021_Sep_15_1145,joplin1,2021.2.3,60.13046826144607,
_train_cond.csv,1 1 1 0 0 0 0 1 1 1,4,categoryB,j,,,0,4,4,1,1,5,19,10,,,,,,,,,,,,,,,,,,,j,1,0.32091366592794657,,,,,,,,,,,,,,,,,,,,,,,,,,,,,,,101,001,2021_Sep_15_1145,joplin1,2021.2.3,60.13046826144607,
_train_cond.csv,1 1 0 1 1 1 1 0 1 1,2,categoryB,j,,,0,4,4,1,1,6,20,12,,,,,,,,,,,,,,,,,,,f,0,0.6647249171510339,,,,,,,,,,,,,,,,,,,,,,,,,,,,,,,101,001,2021_Sep_15_1145,joplin1,2021.2.3,60.13046826144607,
_train_cond.csv,0 0 1 0 0 0 0 1 0 0,8,categoryA,f,,,0,4,4,1,1,7,21,5,,,,,,,,,,,,,,,,,,,f,1,0.41892124991863966,,,,,,,,,,,,,,,,,,,,,,,,,,,,,,,101,001,2021_Sep_15_1145,joplin1,2021.2.3,60.13046826144607,
_train_cond.csv,0 0 1 0 1 1 0 1 0 0,6,categoryA,f,,,0,4,4,1,1,8,22,2,,,,,,,,,,,,,,,,,,,j,0,0.4714551249053329,,,,,,,,,,,,,,,,,,,,,,,,,,,,,,,101,001,2021_Sep_15_1145,joplin1,2021.2.3,60.13046826144607,
_train_cond.csv,0 1 1 1 1 1 1 1 1 0,2,categoryB,j,,,0,4,4,1,1,9,23,7,,,,,,,,,,,,,,,,,,,f,0,0.9775314999278635,,,,,,,,,,,,,,,,,,,,,,,,,,,,,,,101,001,2021_Sep_15_1145,joplin1,2021.2.3,60.13046826144607,
_train_cond.csv,1 1 0 1 0 0 1 0 1 1,4,categoryB,j,,,0,4,4,1,1,10,24,9,,,,,,,,,,,,,,,,,,,j,1,0.17638829187490046,,,,,,,,,,,,,,,,,,,,,,,,,,,,,,,101,001,2021_Sep_15_1145,joplin1,2021.2.3,60.13046826144607,
_train_cond.csv,0 0 1 1 1 1 1 1 0 0,4,categoryB,j,,,0,4,4,1,1,11,25,13,,,,,,,,,,,,,,,,,,,j,1,0.6691483750473708,,,,,,,,,,,,,,,,,,,,,,,,,,,,,,,101,001,2021_Sep_15_1145,joplin1,2021.2.3,60.13046826144607,
_train_cond.csv,1 1 1 0 1 1 0 1 1 1,2,categoryB,j,,,0,4,4,1,1,12,26,11,,,,,,,,,,,,,,,,,,,j,1,0.6463949580211192,,,,,,,,,,,,,,,,,,,,,,,,,,,,,,,101,001,2021_Sep_15_1145,joplin1,2021.2.3,60.13046826144607,
_train_cond.csv,0 0 0 1 0 0 1 0 0 0,8,categoryA,f,,,0,4,4,1,1,13,27,4,,,,,,,,,,,,,,,,,,,f,1,0.3873173750471324,,,,,,,,,,,,,,,,,,,,,,,,,,,,,,,101,001,2021_Sep_15_1145,joplin1,2021.2.3,60.13046826144607,
_train_cond.csv,0 0 1 0 0 0 0 1 0 0,8,categoryA,f,,,0,4,4,1,2,0,28,5,,,,,,,,,,,,,,,,,,,f,1,0.5880894588772207,,,,,,,,,,,,,,,,,,,,,,,,,,,,,,,101,001,2021_Sep_15_1145,joplin1,2021.2.3,60.13046826144607,
_train_cond.csv,0 1 0 0 0 0 0 0 1 0,8,categoryA,f,,,0,4,4,1,2,1,29,1,,,,,,,,,,,,,,,,,,,j,0,0.4573022499680519,,,,,,,,,,,,,,,,,,,,,,,,,,,,,,,101,001,2021_Sep_15_1145,joplin1,2021.2.3,60.13046826144607,
_train_cond.csv,1 0 0 0 0 0 0 0 0 1,8,categoryA,f,,,0,4,4,1,2,2,30,0,,,,,,,,,,,,,,,,,,,f,1,0.3713978750165552,,,,,,,,,,,,,,,,,,,,,,,,,,,,,,,101,001,2021_Sep_15_1145,joplin1,2021.2.3,60.13046826144607,
_train_cond.csv,1 1 0 1 1 1 1 0 1 1,2,categoryB,j,,,0,4,4,1,2,3,31,12,,,,,,,,,,,,,,,,,,,j,1,0.28931329189799726,,,,,,,,,,,,,,,,,,,,,,,,,,,,,,,101,001,2021_Sep_15_1145,joplin1,2021.2.3,60.13046826144607,
_train_cond.csv,0 0 0 1 0 0 1 0 0 0,8,categoryA,f,,,0,4,4,1,2,4,32,4,,,,,,,,,,,,,,,,,,,f,1,0.33957566716708243,,,,,,,,,,,,,,,,,,,,,,,,,,,,,,,101,001,2021_Sep_15_1145,joplin1,2021.2.3,60.13046826144607,
_train_cond.csv,1 1 0 1 0 0 1 0 1 1,4,categoryB,j,,,0,4,4,1,2,5,33,9,,,,,,,,,,,,,,,,,,,j,1,0.4837850839830935,,,,,,,,,,,,,,,,,,,,,,,,,,,,,,,101,001,2021_Sep_15_1145,joplin1,2021.2.3,60.13046826144607,
_train_cond.csv,1 1 1 0 1 1 0 1 1 1,2,categoryB,j,,,0,4,4,1,2,6,34,11,,,,,,,,,,,,,,,,,,,j,1,0.5911405000369996,,,,,,,,,,,,,,,,,,,,,,,,,,,,,,,101,001,2021_Sep_15_1145,joplin1,2021.2.3,60.13046826144607,
_train_cond.csv,0 0 1 1 1 1 1 1 0 0,4,categoryB,j,,,0,4,4,1,2,7,35,13,,,,,,,,,,,,,,,,,,,j,1,0.9228944578208029,,,,,,,,,,,,,,,,,,,,,,,,,,,,,,,101,001,2021_Sep_15_1145,joplin1,2021.2.3,60.13046826144607,
_train_cond.csv,1 1 1 0 0 0 0 1 1 1,4,categoryB,j,,,0,4,4,1,2,8,36,10,,,,,,,,,,,,,,,,,,,j,1,0.6416844590567052,,,,,,,,,,,,,,,,,,,,,,,,,,,,,,,101,001,2021_Sep_15_1145,joplin1,2021.2.3,60.13046826144607,
_train_cond.csv,0 1 1 1 1 1 1 1 1 0,2,categoryB,j,,,0,4,4,1,2,9,37,7,,,,,,,,,,,,,,,,,,,f,0,0.5502530839294195,,,,,,,,,,,,,,,,,,,,,,,,,,,,,,,101,001,2021_Sep_15_1145,joplin1,2021.2.3,60.13046826144607,
_train_cond.csv,0 0 1 0 1 1 0 1 0 0,6,categoryA,f,,,0,4,4,1,2,10,38,2,,,,,,,,,,,,,,,,,,,j,0,0.6052087920252234,,,,,,,,,,,,,,,,,,,,,,,,,,,,,,,101,001,2021_Sep_15_1145,joplin1,2021.2.3,60.13046826144607,
_train_cond.csv,0 0 0 1 1 1 1 0 0 0,6,categoryA,f,,,0,4,4,1,2,11,39,3,,,,,,,,,,,,,,,,,,,f,1,0.5858800830319524,,,,,,,,,,,,,,,,,,,,,,,,,,,,,,,101,001,2021_Sep_15_1145,joplin1,2021.2.3,60.13046826144607,
_train_cond.csv,1 0 1 1 1 1 1 1 0 1,2,categoryB,j,,,0,4,4,1,2,12,40,8,,,,,,,,,,,,,,,,,,,j,1,0.3373224588576704,,,,,,,,,,,,,,,,,,,,,,,,,,,,,,,101,001,2021_Sep_15_1145,joplin1,2021.2.3,60.13046826144607,
_train_cond.csv,1 1 0 0 0 0 0 0 1 1,6,categoryA,f,,,0,4,4,1,2,13,41,6,,,,,,,,,,,,,,,,,,,j,0,0.49612949998117983,,,,,,,,,,,,,,,,,,,,,,,,,,,,,,,101,001,2021_Sep_15_1145,joplin1,2021.2.3,60.13046826144607,
_train_cond.csv,,,,,,,0,4,4,1,,,,,,,,,,,,,,,,,,,,,,,,,,space,9.713432499906048,,,,,,,,,,,,,,,,,,,,,,,,,,,,,101,001,2021_Sep_15_1145,joplin1,2021.2.3,60.13046826144607,
_train_cond.csv,1 1 1 0 1 1 0 1 1 1,2,categoryB,j,,,0,5,5,4,0,0,0,11,,,,,,,,,,,,,,,,,,,f,0,0.1218595418613404,,,,,,,,,,,,,,,,,,,,,,,,,,,,,,,101,001,2021_Sep_15_1145,joplin1,2021.2.3,60.13046826144607,
_train_cond.csv,1 0 0 0 0 0 0 0 0 1,8,categoryA,f,,,0,5,5,4,0,1,1,0,,,,,,,,,,,,,,,,,,,j,0,0.409765874966979,,,,,,,,,,,,,,,,,,,,,,,,,,,,,,,101,001,2021_Sep_15_1145,joplin1,2021.2.3,60.13046826144607,
_train_cond.csv,0 0 0 1 1 1 1 0 0 0,6,categoryA,f,,,0,5,5,4,0,2,2,3,,,,,,,,,,,,,,,,,,,j,0,0.6224646251648664,,,,,,,,,,,,,,,,,,,,,,,,,,,,,,,101,001,2021_Sep_15_1145,joplin1,2021.2.3,60.13046826144607,
_train_cond.csv,0 1 1 1 1 1 1 1 1 0,2,categoryB,j,,,0,5,5,4,0,3,3,7,,,,,,,,,,,,,,,,,,,j,1,0.3796183748636395,,,,,,,,,,,,,,,,,,,,,,,,,,,,,,,101,001,2021_Sep_15_1145,joplin1,2021.2.3,60.13046826144607,
_train_cond.csv,1 0 1 1 1 1 1 1 0 1,2,categoryB,j,,,0,5,5,4,0,4,4,8,,,,,,,,,,,,,,,,,,,j,1,0.2734138749074191,,,,,,,,,,,,,,,,,,,,,,,,,,,,,,,101,001,2021_Sep_15_1145,joplin1,2021.2.3,60.13046826144607,
_train_cond.csv,0 1 0 0 0 0 0 0 1 0,8,categoryA,f,,,0,5,5,4,0,5,5,1,,,,,,,,,,,,,,,,,,,f,1,0.5407667499966919,,,,,,,,,,,,,,,,,,,,,,,,,,,,,,,101,001,2021_Sep_15_1145,joplin1,2021.2.3,60.13046826144607,
_train_cond.csv,1 1 0 1 1 1 1 0 1 1,2,categoryB,j,,,0,5,5,4,0,6,6,12,,,,,,,,,,,,,,,,,,,j,1,0.4037925419397652,,,,,,,,,,,,,,,,,,,,,,,,,,,,,,,101,001,2021_Sep_15_1145,joplin1,2021.2.3,60.13046826144607,
_train_cond.csv,1 1 0 0 0 0 0 0 1 1,6,categoryA,f,,,0,5,5,4,0,7,7,6,,,,,,,,,,,,,,,,,,,j,0,0.43306199996732175,,,,,,,,,,,,,,,,,,,,,,,,,,,,,,,101,001,2021_Sep_15_1145,joplin1,2021.2.3,60.13046826144607,
_train_cond.csv,0 0 1 1 1 1 1 1 0 0,4,categoryB,j,,,0,5,5,4,0,8,8,13,,,,,,,,,,,,,,,,,,,f,0,0.5664750831201673,,,,,,,,,,,,,,,,,,,,,,,,,,,,,,,101,001,2021_Sep_15_1145,joplin1,2021.2.3,60.13046826144607,
_train_cond.csv,0 0 1 0 0 0 0 1 0 0,8,categoryA,f,,,0,5,5,4,0,9,9,5,,,,,,,,,,,,,,,,,,,j,0,0.31677083391696215,,,,,,,,,,,,,,,,,,,,,,,,,,,,,,,101,001,2021_Sep_15_1145,joplin1,2021.2.3,60.13046826144607,
_train_cond.csv,1 1 1 0 0 0 0 1 1 1,4,categoryB,j,,,0,5,5,4,0,10,10,10,,,,,,,,,,,,,,,,,,,j,1,0.38938566599972546,,,,,,,,,,,,,,,,,,,,,,,,,,,,,,,101,001,2021_Sep_15_1145,joplin1,2021.2.3,60.13046826144607,
_train_cond.csv,1 1 0 1 0 0 1 0 1 1,4,categoryB,j,,,0,5,5,4,0,11,11,9,,,,,,,,,,,,,,,,,,,f,0,0.37955562490969896,,,,,,,,,,,,,,,,,,,,,,,,,,,,,,,101,001,2021_Sep_15_1145,joplin1,2021.2.3,60.13046826144607,
_train_cond.csv,0 0 1 0 1 1 0 1 0 0,6,categoryA,f,,,0,5,5,4,0,12,12,2,,,,,,,,,,,,,,,,,,,j,0,0.44858891679905355,,,,,,,,,,,,,,,,,,,,,,,,,,,,,,,101,001,2021_Sep_15_1145,joplin1,2021.2.3,60.13046826144607,
_train_cond.csv,0 0 0 1 0 0 1 0 0 0,8,categoryA,f,,,0,5,5,4,0,13,13,4,,,,,,,,,,,,,,,,,,,f,1,0.5805732919834554,,,,,,,,,,,,,,,,,,,,,,,,,,,,,,,101,001,2021_Sep_15_1145,joplin1,2021.2.3,60.13046826144607,
_train_cond.csv,1 1 0 1 1 1 1 0 1 1,2,categoryB,j,,,0,5,5,4,1,0,14,12,,,,,,,,,,,,,,,,,,,j,1,0.6023463751189411,,,,,,,,,,,,,,,,,,,,,,,,,,,,,,,101,001,2021_Sep_15_1145,joplin1,2021.2.3,60.13046826144607,
_train_cond.csv,0 0 1 0 1 1 0 1 0 0,6,categoryA,f,,,0,5,5,4,1,1,15,2,,,,,,,,,,,,,,,,,,,j,0,1.1680040420033038,,,,,,,,,,,,,,,,,,,,,,,,,,,,,,,101,001,2021_Sep_15_1145,joplin1,2021.2.3,60.13046826144607,
_train_cond.csv,0 0 1 0 0 0 0 1 0 0,8,categoryA,f,,,0,5,5,4,1,2,16,5,,,,,,,,,,,,,,,,,,,f,1,0.19930599979124963,,,,,,,,,,,,,,,,,,,,,,,,,,,,,,,101,001,2021_Sep_15_1145,joplin1,2021.2.3,60.13046826144607,
_train_cond.csv,1 1 0 0 0 0 0 0 1 1,6,categoryA,f,,,0,5,5,4,1,3,17,6,,,,,,,,,,,,,,,,,,,j,0,0.39655020902864635,,,,,,,,,,,,,,,,,,,,,,,,,,,,,,,101,001,2021_Sep_15_1145,joplin1,2021.2.3,60.13046826144607,
_train_cond.csv,1 1 1 0 0 0 0 1 1 1,4,categoryB,j,,,0,5,5,4,1,4,18,10,,,,,,,,,,,,,,,,,,,j,1,0.8779202089644969,,,,,,,,,,,,,,,,,,,,,,,,,,,,,,,101,001,2021_Sep_15_1145,joplin1,2021.2.3,60.13046826144607,
_train_cond.csv,1 1 1 0 1 1 0 1 1 1,2,categoryB,j,,,0,5,5,4,1,5,19,11,,,,,,,,,,,,,,,,,,,j,1,0.6974567919969559,,,,,,,,,,,,,,,,,,,,,,,,,,,,,,,101,001,2021_Sep_15_1145,joplin1,2021.2.3,60.13046826144607,
_train_cond.csv,1 0 1 1 1 1 1 1 0 1,2,categoryB,j,,,0,5,5,4,1,6,20,8,,,,,,,,,,,,,,,,,,,j,1,0.4848761248867959,,,,,,,,,,,,,,,,,,,,,,,,,,,,,,,101,001,2021_Sep_15_1145,joplin1,2021.2.3,60.13046826144607,
_train_cond.csv,1 0 0 0 0 0 0 0 0 1,8,categoryA,f,,,0,5,5,4,1,7,21,0,,,,,,,,,,,,,,,,,,,f,1,0.22733704093843699,,,,,,,,,,,,,,,,,,,,,,,,,,,,,,,101,001,2021_Sep_15_1145,joplin1,2021.2.3,60.13046826144607,
_train_cond.csv,0 1 0 0 0 0 0 0 1 0,8,categoryA,f,,,0,5,5,4,1,8,22,1,,,,,,,,,,,,,,,,,,,j,0,0.4467687918804586,,,,,,,,,,,,,,,,,,,,,,,,,,,,,,,101,001,2021_Sep_15_1145,joplin1,2021.2.3,60.13046826144607,
_train_cond.csv,0 0 1 1 1 1 1 1 0 0,4,categoryB,j,,,0,5,5,4,1,9,23,13,,,,,,,,,,,,,,,,,,,f,0,0.4660210420843214,,,,,,,,,,,,,,,,,,,,,,,,,,,,,,,101,001,2021_Sep_15_1145,joplin1,2021.2.3,60.13046826144607,
_train_cond.csv,0 1 1 1 1 1 1 1 1 0,2,categoryB,j,,,0,5,5,4,1,10,24,7,,,,,,,,,,,,,,,,,,,j,1,0.22924833302386105,,,,,,,,,,,,,,,,,,,,,,,,,,,,,,,101,001,2021_Sep_15_1145,joplin1,2021.2.3,60.13046826144607,
_train_cond.csv,0 0 0 1 1 1 1 0 0 0,6,categoryA,f,,,0,5,5,4,1,11,25,3,,,,,,,,,,,,,,,,,,,f,1,0.5213518340606242,,,,,,,,,,,,,,,,,,,,,,,,,,,,,,,101,001,2021_Sep_15_1145,joplin1,2021.2.3,60.13046826144607,
_train_cond.csv,1 1 0 1 0 0 1 0 1 1,4,categoryB,j,,,0,5,5,4,1,12,26,9,,,,,,,,,,,,,,,,,,,j,1,0.3775465830694884,,,,,,,,,,,,,,,,,,,,,,,,,,,,,,,101,001,2021_Sep_15_1145,joplin1,2021.2.3,60.13046826144607,
_train_cond.csv,0 0 0 1 0 0 1 0 0 0,8,categoryA,f,,,0,5,5,4,1,13,27,4,,,,,,,,,,,,,,,,,,,f,1,0.3514727500732988,,,,,,,,,,,,,,,,,,,,,,,,,,,,,,,101,001,2021_Sep_15_1145,joplin1,2021.2.3,60.13046826144607,
_train_cond.csv,1 0 0 0 0 0 0 0 0 1,8,categoryA,f,,,0,5,5,4,2,0,28,0,,,,,,,,,,,,,,,,,,,j,0,0.5428308751434088,,,,,,,,,,,,,,,,,,,,,,,,,,,,,,,101,001,2021_Sep_15_1145,joplin1,2021.2.3,60.13046826144607,
_train_cond.csv,0 0 1 0 1 1 0 1 0 0,6,categoryA,f,,,0,5,5,4,2,1,29,2,,,,,,,,,,,,,,,,,,,f,1,0.5186269171535969,,,,,,,,,,,,,,,,,,,,,,,,,,,,,,,101,001,2021_Sep_15_1145,joplin1,2021.2.3,60.13046826144607,
_train_cond.csv,0 1 0 0 0 0 0 0 1 0,8,categoryA,f,,,0,5,5,4,2,2,30,1,,,,,,,,,,,,,,,,,,,j,0,0.46331612509675324,,,,,,,,,,,,,,,,,,,,,,,,,,,,,,,101,001,2021_Sep_15_1145,joplin1,2021.2.3,60.13046826144607,
_train_cond.csv,0 0 1 1 1 1 1 1 0 0,4,categoryB,j,,,0,5,5,4,2,3,31,13,,,,,,,,,,,,,,,,,,,f,0,0.4987036669626832,,,,,,,,,,,,,,,,,,,,,,,,,,,,,,,101,001,2021_Sep_15_1145,joplin1,2021.2.3,60.13046826144607,
_train_cond.csv,0 1 1 1 1 1 1 1 1 0,2,categoryB,j,,,0,5,5,4,2,4,32,7,,,,,,,,,,,,,,,,,,,f,0,0.5641364580951631,,,,,,,,,,,,,,,,,,,,,,,,,,,,,,,101,001,2021_Sep_15_1145,joplin1,2021.2.3,60.13046826144607,
_train_cond.csv,0 0 1 0 0 0 0 1 0 0,8,categoryA,f,,,0,5,5,4,2,5,33,5,,,,,,,,,,,,,,,,,,,f,1,0.3550514162052423,,,,,,,,,,,,,,,,,,,,,,,,,,,,,,,101,001,2021_Sep_15_1145,joplin1,2021.2.3,60.13046826144607,
_train_cond.csv,0 0 0 1 0 0 1 0 0 0,8,categoryA,f,,,0,5,5,4,2,6,34,4,,,,,,,,,,,,,,,,,,,f,1,0.5057694590650499,,,,,,,,,,,,,,,,,,,,,,,,,,,,,,,101,001,2021_Sep_15_1145,joplin1,2021.2.3,60.13046826144607,
_train_cond.csv,0 0 0 1 1 1 1 0 0 0,6,categoryA,f,,,0,5,5,4,2,7,35,3,,,,,,,,,,,,,,,,,,,f,1,0.5722319581545889,,,,,,,,,,,,,,,,,,,,,,,,,,,,,,,101,001,2021_Sep_15_1145,joplin1,2021.2.3,60.13046826144607,
_train_cond.csv,1 1 0 1 0 0 1 0 1 1,4,categoryB,j,,,0,5,5,4,2,8,36,9,,,,,,,,,,,,,,,,,,,j,1,0.5145815000869334,,,,,,,,,,,,,,,,,,,,,,,,,,,,,,,101,001,2021_Sep_15_1145,joplin1,2021.2.3,60.13046826144607,
_train_cond.csv,1 1 0 1 1 1 1 0 1 1,2,categoryB,j,,,0,5,5,4,2,9,37,12,,,,,,,,,,,,,,,,,,,j,1,0.24423345807008445,,,,,,,,,,,,,,,,,,,,,,,,,,,,,,,101,001,2021_Sep_15_1145,joplin1,2021.2.3,60.13046826144607,
_train_cond.csv,1 1 0 0 0 0 0 0 1 1,6,categoryA,f,,,0,5,5,4,2,10,38,6,,,,,,,,,,,,,,,,,,,j,0,0.5843320828862488,,,,,,,,,,,,,,,,,,,,,,,,,,,,,,,101,001,2021_Sep_15_1145,joplin1,2021.2.3,60.13046826144607,
_train_cond.csv,1 0 1 1 1 1 1 1 0 1,2,categoryB,j,,,0,5,5,4,2,11,39,8,,,,,,,,,,,,,,,,,,,j,1,0.43865695782005787,,,,,,,,,,,,,,,,,,,,,,,,,,,,,,,101,001,2021_Sep_15_1145,joplin1,2021.2.3,60.13046826144607,
_train_cond.csv,1 1 1 0 1 1 0 1 1 1,2,categoryB,j,,,0,5,5,4,2,12,40,11,,,,,,,,,,,,,,,,,,,j,1,0.46524195885285735,,,,,,,,,,,,,,,,,,,,,,,,,,,,,,,101,001,2021_Sep_15_1145,joplin1,2021.2.3,60.13046826144607,
_train_cond.csv,1 1 1 0 0 0 0 1 1 1,4,categoryB,j,,,0,5,5,4,2,13,41,10,,,,,,,,,,,,,,,,,,,f,0,0.3896754588931799,,,,,,,,,,,,,,,,,,,,,,,,,,,,,,,101,001,2021_Sep_15_1145,joplin1,2021.2.3,60.13046826144607,
_train_cond.csv,,,,,,,0,5,5,4,,,,,,,,,,,,,,,,,,,,,,,,,,space,6.4598413340281695,,,,,,,,,,,,,,,,,,,,,,,,,,,,,101,001,2021_Sep_15_1145,joplin1,2021.2.3,60.13046826144607,
_train_cond.csv,1 1 1 0 0 0 0 1 1 1,4,categoryB,j,,,0,6,6,3,0,0,0,10,,,,,,,,,,,,,,,,,,,j,1,0.21380012505687773,,,,,,,,,,,,,,,,,,,,,,,,,,,,,,,101,001,2021_Sep_15_1145,joplin1,2021.2.3,60.13046826144607,
_train_cond.csv,0 0 1 0 1 1 0 1 0 0,6,categoryA,f,,,0,6,6,3,0,1,1,2,,,,,,,,,,,,,,,,,,,f,1,0.306848542066291,,,,,,,,,,,,,,,,,,,,,,,,,,,,,,,101,001,2021_Sep_15_1145,joplin1,2021.2.3,60.13046826144607,
_train_cond.csv,0 0 0 1 0 0 1 0 0 0,8,categoryA,f,,,0,6,6,3,0,2,2,4,,,,,,,,,,,,,,,,,,,f,1,0.4183450839482248,,,,,,,,,,,,,,,,,,,,,,,,,,,,,,,101,001,2021_Sep_15_1145,joplin1,2021.2.3,60.13046826144607,
_train_cond.csv,0 1 0 0 0 0 0 0 1 0,8,categoryA,f,,,0,6,6,3,0,3,3,1,,,,,,,,,,,,,,,,,,,j,0,0.9512954580131918,,,,,,,,,,,,,,,,,,,,,,,,,,,,,,,101,001,2021_Sep_15_1145,joplin1,2021.2.3,60.13046826144607,
_train_cond.csv,1 1 0 0 0 0 0 0 1 1,6,categoryA,f,,,0,6,6,3,0,4,4,6,,,,,,,,,,,,,,,,,,,f,1,0.5516691249795258,,,,,,,,,,,,,,,,,,,,,,,,,,,,,,,101,001,2021_Sep_15_1145,joplin1,2021.2.3,60.13046826144607,
_train_cond.csv,0 0 1 1 1 1 1 1 0 0,4,categoryB,j,,,0,6,6,3,0,5,5,13,,,,,,,,,,,,,,,,,,,f,0,0.5906964158639312,,,,,,,,,,,,,,,,,,,,,,,,,,,,,,,101,001,2021_Sep_15_1145,joplin1,2021.2.3,60.13046826144607,
_train_cond.csv,1 0 1 1 1 1 1 1 0 1,2,categoryB,j,,,0,6,6,3,0,6,6,8,,,,,,,,,,,,,,,,,,,j,1,0.3635432079900056,,,,,,,,,,,,,,,,,,,,,,,,,,,,,,,101,001,2021_Sep_15_1145,joplin1,2021.2.3,60.13046826144607,
_train_cond.csv,1 1 1 0 1 1 0 1 1 1,2,categoryB,j,,,0,6,6,3,0,7,7,11,,,,,,,,,,,,,,,,,,,j,1,0.29646316706202924,,,,,,,,,,,,,,,,,,,,,,,,,,,,,,,101,001,2021_Sep_15_1145,joplin1,2021.2.3,60.13046826144607,
_train_cond.csv,1 1 0 1 0 0 1 0 1 1,4,categoryB,j,,,0,6,6,3,0,8,8,9,,,,,,,,,,,,,,,,,,,j,1,0.13249370781704783,,,,,,,,,,,,,,,,,,,,,,,,,,,,,,,101,001,2021_Sep_15_1145,joplin1,2021.2.3,60.13046826144607,
_train_cond.csv,0 1 1 1 1 1 1 1 1 0,2,categoryB,j,,,0,6,6,3,0,9,9,7,,,,,,,,,,,,,,,,,,,j,1,0.5162388749886304,,,,,,,,,,,,,,,,,,,,,,,,,,,,,,,101,001,2021_Sep_15_1145,joplin1,2021.2.3,60.13046826144607,
_train_cond.csv,0 0 1 0 0 0 0 1 0 0,8,categoryA,f,,,0,6,6,3,0,10,10,5,,,,,,,,,,,,,,,,,,,f,1,0.6214345840271562,,,,,,,,,,,,,,,,,,,,,,,,,,,,,,,101,001,2021_Sep_15_1145,joplin1,2021.2.3,60.13046826144607,
_train_cond.csv,1 1 0 1 1 1 1 0 1 1,2,categoryB,j,,,0,6,6,3,0,11,11,12,,,,,,,,,,,,,,,,,,,j,1,0.49735512491315603,,,,,,,,,,,,,,,,,,,,,,,,,,,,,,,101,001,2021_Sep_15_1145,joplin1,2021.2.3,60.13046826144607,
_train_cond.csv,1 0 0 0 0 0 0 0 0 1,8,categoryA,f,,,0,6,6,3,0,12,12,0,,,,,,,,,,,,,,,,,,,f,1,0.7152428748086095,,,,,,,,,,,,,,,,,,,,,,,,,,,,,,,101,001,2021_Sep_15_1145,joplin1,2021.2.3,60.13046826144607,
_train_cond.csv,0 0 0 1 1 1 1 0 0 0,6,categoryA,f,,,0,6,6,3,0,13,13,3,,,,,,,,,,,,,,,,,,,f,1,0.796386166010052,,,,,,,,,,,,,,,,,,,,,,,,,,,,,,,101,001,2021_Sep_15_1145,joplin1,2021.2.3,60.13046826144607,
_train_cond.csv,0 1 0 0 0 0 0 0 1 0,8,categoryA,f,,,0,6,6,3,1,0,14,1,,,,,,,,,,,,,,,,,,,f,1,0.7939655410591513,,,,,,,,,,,,,,,,,,,,,,,,,,,,,,,101,001,2021_Sep_15_1145,joplin1,2021.2.3,60.13046826144607,
_train_cond.csv,1 1 1 0 0 0 0 1 1 1,4,categoryB,j,,,0,6,6,3,1,1,15,10,,,,,,,,,,,,,,,,,,,j,1,0.5586844999343157,,,,,,,,,,,,,,,,,,,,,,,,,,,,,,,101,001,2021_Sep_15_1145,joplin1,2021.2.3,60.13046826144607,
_train_cond.csv,0 0 1 0 1 1 0 1 0 0,6,categoryA,f,,,0,6,6,3,1,2,16,2,,,,,,,,,,,,,,,,,,,f,1,0.5886837078724056,,,,,,,,,,,,,,,,,,,,,,,,,,,,,,,101,001,2021_Sep_15_1145,joplin1,2021.2.3,60.13046826144607,
_train_cond.csv,0 0 1 0 0 0 0 1 0 0,8,categoryA,f,,,0,6,6,3,1,3,17,5,,,,,,,,,,,,,,,,,,,f,1,0.6582899161148816,,,,,,,,,,,,,,,,,,,,,,,,,,,,,,,101,001,2021_Sep_15_1145,joplin1,2021.2.3,60.13046826144607,
_train_cond.csv,1 1 0 1 0 0 1 0 1 1,4,categoryB,j,,,0,6,6,3,1,4,18,9,,,,,,,,,,,,,,,,,,,j,1,0.6302299578674138,,,,,,,,,,,,,,,,,,,,,,,,,,,,,,,101,001,2021_Sep_15_1145,joplin1,2021.2.3,60.13046826144607,
_train_cond.csv,0 0 0 1 0 0 1 0 0 0,8,categoryA,f,,,0,6,6,3,1,5,19,4,,,,,,,,,,,,,,,,,,,f,1,0.5221912078559399,,,,,,,,,,,,,,,,,,,,,,,,,,,,,,,101,001,2021_Sep_15_1145,joplin1,2021.2.3,60.13046826144607,
_train_cond.csv,0 0 1 1 1 1 1 1 0 0,4,categoryB,j,,,0,6,6,3,1,6,20,13,,,,,,,,,,,,,,,,,,,j,1,0.5302795830648392,,,,,,,,,,,,,,,,,,,,,,,,,,,,,,,101,001,2021_Sep_15_1145,joplin1,2021.2.3,60.13046826144607,
_train_cond.csv,1 1 0 0 0 0 0 0 1 1,6,categoryA,f,,,0,6,6,3,1,7,21,6,,,,,,,,,,,,,,,,,,,j,0,0.4583263748791069,,,,,,,,,,,,,,,,,,,,,,,,,,,,,,,101,001,2021_Sep_15_1145,joplin1,2021.2.3,60.13046826144607,
_train_cond.csv,0 1 1 1 1 1 1 1 1 0,2,categoryB,j,,,0,6,6,3,1,8,22,7,,,,,,,,,,,,,,,,,,,j,1,0.37355829193256795,,,,,,,,,,,,,,,,,,,,,,,,,,,,,,,101,001,2021_Sep_15_1145,joplin1,2021.2.3,60.13046826144607,
_train_cond.csv,0 0 0 1 1 1 1 0 0 0,6,categoryA,f,,,0,6,6,3,1,9,23,3,,,,,,,,,,,,,,,,,,,j,0,0.34610554203391075,,,,,,,,,,,,,,,,,,,,,,,,,,,,,,,101,001,2021_Sep_15_1145,joplin1,2021.2.3,60.13046826144607,
_train_cond.csv,1 1 0 1 1 1 1 0 1 1,2,categoryB,j,,,0,6,6,3,1,10,24,12,,,,,,,,,,,,,,,,,,,j,1,0.43371345894411206,,,,,,,,,,,,,,,,,,,,,,,,,,,,,,,101,001,2021_Sep_15_1145,joplin1,2021.2.3,60.13046826144607,
_train_cond.csv,1 0 1 1 1 1 1 1 0 1,2,categoryB,j,,,0,6,6,3,1,11,25,8,,,,,,,,,,,,,,,,,,,j,1,0.36671612481586635,,,,,,,,,,,,,,,,,,,,,,,,,,,,,,,101,001,2021_Sep_15_1145,joplin1,2021.2.3,60.13046826144607,
_train_cond.csv,1 1 1 0 1 1 0 1 1 1,2,categoryB,j,,,0,6,6,3,1,12,26,11,,,,,,,,,,,,,,,,,,,j,1,0.40622962499037385,,,,,,,,,,,,,,,,,,,,,,,,,,,,,,,101,001,2021_Sep_15_1145,joplin1,2021.2.3,60.13046826144607,
_train_cond.csv,1 0 0 0 0 0 0 0 0 1,8,categoryA,f,,,0,6,6,3,1,13,27,0,,,,,,,,,,,,,,,,,,,f,1,0.6986722080036998,,,,,,,,,,,,,,,,,,,,,,,,,,,,,,,101,001,2021_Sep_15_1145,joplin1,2021.2.3,60.13046826144607,
_train_cond.csv,0 0 1 1 1 1 1 1 0 0,4,categoryB,j,,,0,6,6,3,2,0,28,13,,,,,,,,,,,,,,,,,,,f,0,0.7486127088777721,,,,,,,,,,,,,,,,,,,,,,,,,,,,,,,101,001,2021_Sep_15_1145,joplin1,2021.2.3,60.13046826144607,
_train_cond.csv,1 1 0 0 0 0 0 0 1 1,6,categoryA,f,,,0,6,6,3,2,1,29,6,,,,,,,,,,,,,,,,,,,j,0,0.5086496248841286,,,,,,,,,,,,,,,,,,,,,,,,,,,,,,,101,001,2021_Sep_15_1145,joplin1,2021.2.3,60.13046826144607,
_train_cond.csv,1 0 1 1 1 1 1 1 0 1,2,categoryB,j,,,0,6,6,3,2,2,30,8,,,,,,,,,,,,,,,,,,,j,1,0.4939377079717815,,,,,,,,,,,,,,,,,,,,,,,,,,,,,,,101,001,2021_Sep_15_1145,joplin1,2021.2.3,60.13046826144607,
_train_cond.csv,1 0 0 0 0 0 0 0 0 1,8,categoryA,f,,,0,6,6,3,2,3,31,0,,,,,,,,,,,,,,,,,,,f,1,0.6093949589412659,,,,,,,,,,,,,,,,,,,,,,,,,,,,,,,101,001,2021_Sep_15_1145,joplin1,2021.2.3,60.13046826144607,
_train_cond.csv,1 1 1 0 1 1 0 1 1 1,2,categoryB,j,,,0,6,6,3,2,4,32,11,,,,,,,,,,,,,,,,,,,j,1,0.5977322920225561,,,,,,,,,,,,,,,,,,,,,,,,,,,,,,,101,001,2021_Sep_15_1145,joplin1,2021.2.3,60.13046826144607,
_train_cond.csv,0 0 0 1 0 0 1 0 0 0,8,categoryA,f,,,0,6,6,3,2,5,33,4,,,,,,,,,,,,,,,,,,,f,1,0.43506870907731354,,,,,,,,,,,,,,,,,,,,,,,,,,,,,,,101,001,2021_Sep_15_1145,joplin1,2021.2.3,60.13046826144607,
_train_cond.csv,0 1 0 0 0 0 0 0 1 0,8,categoryA,f,,,0,6,6,3,2,6,34,1,,,,,,,,,,,,,,,,,,,f,1,0.49585058400407434,,,,,,,,,,,,,,,,,,,,,,,,,,,,,,,101,001,2021_Sep_15_1145,joplin1,2021.2.3,60.13046826144607,
_train_cond.csv,1 1 0 1 0 0 1 0 1 1,4,categoryB,j,,,0,6,6,3,2,7,35,9,,,,,,,,,,,,,,,,,,,f,0,0.41044079209677875,,,,,,,,,,,,,,,,,,,,,,,,,,,,,,,101,001,2021_Sep_15_1145,joplin1,2021.2.3,60.13046826144607,
_train_cond.csv,0 0 1 0 1 1 0 1 0 0,6,categoryA,f,,,0,6,6,3,2,8,36,2,,,,,,,,,,,,,,,,,,,f,1,0.5899920410010964,,,,,,,,,,,,,,,,,,,,,,,,,,,,,,,101,001,2021_Sep_15_1145,joplin1,2021.2.3,60.13046826144607,
_train_cond.csv,1 1 1 0 0 0 0 1 1 1,4,categoryB,j,,,0,6,6,3,2,9,37,10,,,,,,,,,,,,,,,,,,,j,1,0.3561172499321401,,,,,,,,,,,,,,,,,,,,,,,,,,,,,,,101,001,2021_Sep_15_1145,joplin1,2021.2.3,60.13046826144607,
_train_cond.csv,0 1 1 1 1 1 1 1 1 0,2,categoryB,j,,,0,6,6,3,2,10,38,7,,,,,,,,,,,,,,,,,,,f,0,0.8507217920850962,,,,,,,,,,,,,,,,,,,,,,,,,,,,,,,101,001,2021_Sep_15_1145,joplin1,2021.2.3,60.13046826144607,
_train_cond.csv,0 0 0 1 1 1 1 0 0 0,6,categoryA,f,,,0,6,6,3,2,11,39,3,,,,,,,,,,,,,,,,,,,j,0,0.31010187487117946,,,,,,,,,,,,,,,,,,,,,,,,,,,,,,,101,001,2021_Sep_15_1145,joplin1,2021.2.3,60.13046826144607,
_train_cond.csv,0 0 1 0 0 0 0 1 0 0,8,categoryA,f,,,0,6,6,3,2,12,40,5,,,,,,,,,,,,,,,,,,,f,1,0.03937187511473894,,,,,,,,,,,,,,,,,,,,,,,,,,,,,,,101,001,2021_Sep_15_1145,joplin1,2021.2.3,60.13046826144607,
_train_cond.csv,1 1 0 1 1 1 1 0 1 1,2,categoryB,j,,,0,6,6,3,2,13,41,12,,,,,,,,,,,,,,,,,,,j,1,0.4345709579065442,,,,,,,,,,,,,,,,,,,,,,,,,,,,,,,101,001,2021_Sep_15_1145,joplin1,2021.2.3,60.13046826144607,
_train_cond.csv,,,,,,,0,6,6,3,,,,,,,,,,,,,,,,,,,,,,,,,,space,42.943997875088826,,,,,,,,,,,,,,,,,,,,,,,,,,,,,101,001,2021_Sep_15_1145,joplin1,2021.2.3,60.13046826144607,
_train_cond.csv,0 0 1 1 1 1 1 1 0 0,4,categoryB,j,,,0,7,7,2,0,0,0,13,,,,,,,,,,,,,,,,,,,f,0,0.29375258297659457,,,,,,,,,,,,,,,,,,,,,,,,,,,,,,,101,001,2021_Sep_15_1145,joplin1,2021.2.3,60.13046826144607,
_train_cond.csv,0 1 0 0 0 0 0 0 1 0,8,categoryA,f,,,0,7,7,2,0,1,1,1,,,,,,,,,,,,,,,,,,,f,1,0.3908860411029309,,,,,,,,,,,,,,,,,,,,,,,,,,,,,,,101,001,2021_Sep_15_1145,joplin1,2021.2.3,60.13046826144607,
_train_cond.csv,1 0 1 1 1 1 1 1 0 1,2,categoryB,j,,,0,7,7,2,0,2,2,8,,,,,,,,,,,,,,,,,,,j,1,0.22907433309592307,,,,,,,,,,,,,,,,,,,,,,,,,,,,,,,101,001,2021_Sep_15_1145,joplin1,2021.2.3,60.13046826144607,
_train_cond.csv,0 0 1 0 0 0 0 1 0 0,8,categoryA,f,,,0,7,7,2,0,3,3,5,,,,,,,,,,,,,,,,,,,f,1,0.31359170796349645,,,,,,,,,,,,,,,,,,,,,,,,,,,,,,,101,001,2021_Sep_15_1145,joplin1,2021.2.3,60.13046826144607,
_train_cond.csv,1 1 0 1 0 0 1 0 1 1,4,categoryB,j,,,0,7,7,2,0,4,4,9,,,,,,,,,,,,,,,,,,,j,1,0.3382488340139389,,,,,,,,,,,,,,,,,,,,,,,,,,,,,,,101,001,2021_Sep_15_1145,joplin1,2021.2.3,60.13046826144607,
_train_cond.csv,1 0 0 0 0 0 0 0 0 1,8,categoryA,f,,,0,7,7,2,0,5,5,0,,,,,,,,,,,,,,,,,,,f,1,0.30598945799283683,,,,,,,,,,,,,,,,,,,,,,,,,,,,,,,101,001,2021_Sep_15_1145,joplin1,2021.2.3,60.13046826144607,
_train_cond.csv,0 1 1 1 1 1 1 1 1 0,2,categoryB,j,,,0,7,7,2,0,6,6,7,,,,,,,,,,,,,,,,,,,j,1,0.32004737481474876,,,,,,,,,,,,,,,,,,,,,,,,,,,,,,,101,001,2021_Sep_15_1145,joplin1,2021.2.3,60.13046826144607,
_train_cond.csv,0 0 0 1 0 0 1 0 0 0,8,categoryA,f,,,0,7,7,2,0,7,7,4,,,,,,,,,,,,,,,,,,,f,1,0.3286233339458704,,,,,,,,,,,,,,,,,,,,,,,,,,,,,,,101,001,2021_Sep_15_1145,joplin1,2021.2.3,60.13046826144607,
_train_cond.csv,1 1 0 1 1 1 1 0 1 1,2,categoryB,j,,,0,7,7,2,0,8,8,12,,,,,,,,,,,,,,,,,,,j,1,0.30485920887440443,,,,,,,,,,,,,,,,,,,,,,,,,,,,,,,101,001,2021_Sep_15_1145,joplin1,2021.2.3,60.13046826144607,
_train_cond.csv,1 1 0 0 0 0 0 0 1 1,6,categoryA,f,,,0,7,7,2,0,9,9,6,,,,,,,,,,,,,,,,,,,f,1,0.4099511669483036,,,,,,,,,,,,,,,,,,,,,,,,,,,,,,,101,001,2021_Sep_15_1145,joplin1,2021.2.3,60.13046826144607,
_train_cond.csv,0 0 1 0 1 1 0 1 0 0,6,categoryA,f,,,0,7,7,2,0,10,10,2,,,,,,,,,,,,,,,,,,,f,1,0.6790962498635054,,,,,,,,,,,,,,,,,,,,,,,,,,,,,,,101,001,2021_Sep_15_1145,joplin1,2021.2.3,60.13046826144607,
_train_cond.csv,0 0 0 1 1 1 1 0 0 0,6,categoryA,f,,,0,7,7,2,0,11,11,3,,,,,,,,,,,,,,,,,,,f,1,0.6660124589689076,,,,,,,,,,,,,,,,,,,,,,,,,,,,,,,101,001,2021_Sep_15_1145,joplin1,2021.2.3,60.13046826144607,
_train_cond.csv,1 1 1 0 1 1 0 1 1 1,2,categoryB,j,,,0,7,7,2,0,12,12,11,,,,,,,,,,,,,,,,,,,j,1,0.3343832918908447,,,,,,,,,,,,,,,,,,,,,,,,,,,,,,,101,001,2021_Sep_15_1145,joplin1,2021.2.3,60.13046826144607,
_train_cond.csv,1 1 1 0 0 0 0 1 1 1,4,categoryB,j,,,0,7,7,2,0,13,13,10,,,,,,,,,,,,,,,,,,,j,1,0.8142583749722689,,,,,,,,,,,,,,,,,,,,,,,,,,,,,,,101,001,2021_Sep_15_1145,joplin1,2021.2.3,60.13046826144607,
_train_cond.csv,1 0 1 1 1 1 1 1 0 1,2,categoryB,j,,,0,7,7,2,1,0,14,8,,,,,,,,,,,,,,,,,,,j,1,0.36378383287228644,,,,,,,,,,,,,,,,,,,,,,,,,,,,,,,101,001,2021_Sep_15_1145,joplin1,2021.2.3,60.13046826144607,
_train_cond.csv,1 1 0 1 0 0 1 0 1 1,4,categoryB,j,,,0,7,7,2,1,1,15,9,,,,,,,,,,,,,,,,,,,j,1,0.3954117908142507,,,,,,,,,,,,,,,,,,,,,,,,,,,,,,,101,001,2021_Sep_15_1145,joplin1,2021.2.3,60.13046826144607,
_train_cond.csv,1 1 1 0 1 1 0 1 1 1,2,categoryB,j,,,0,7,7,2,1,2,16,11,,,,,,,,,,,,,,,,,,,j,1,0.450151750119403,,,,,,,,,,,,,,,,,,,,,,,,,,,,,,,101,001,2021_Sep_15_1145,joplin1,2021.2.3,60.13046826144607,
_train_cond.csv,0 0 1 0 1 1 0 1 0 0,6,categoryA,f,,,0,7,7,2,1,3,17,2,,,,,,,,,,,,,,,,,,,f,1,0.374010750092566,,,,,,,,,,,,,,,,,,,,,,,,,,,,,,,101,001,2021_Sep_15_1145,joplin1,2021.2.3,60.13046826144607,
_train_cond.csv,0 1 0 0 0 0 0 0 1 0,8,categoryA,f,,,0,7,7,2,1,4,18,1,,,,,,,,,,,,,,,,,,,f,1,0.5566398329101503,,,,,,,,,,,,,,,,,,,,,,,,,,,,,,,101,001,2021_Sep_15_1145,joplin1,2021.2.3,60.13046826144607,
_train_cond.csv,0 1 1 1 1 1 1 1 1 0,2,categoryB,j,,,0,7,7,2,1,5,19,7,,,,,,,,,,,,,,,,,,,j,1,0.4765860000625253,,,,,,,,,,,,,,,,,,,,,,,,,,,,,,,101,001,2021_Sep_15_1145,joplin1,2021.2.3,60.13046826144607,
_train_cond.csv,1 1 1 0 0 0 0 1 1 1,4,categoryB,j,,,0,7,7,2,1,6,20,10,,,,,,,,,,,,,,,,,,,j,1,0.5349973749835044,,,,,,,,,,,,,,,,,,,,,,,,,,,,,,,101,001,2021_Sep_15_1145,joplin1,2021.2.3,60.13046826144607,
_train_cond.csv,0 0 0 1 0 0 1 0 0 0,8,categoryA,f,,,0,7,7,2,1,7,21,4,,,,,,,,,,,,,,,,,,,f,1,0.3097882498987019,,,,,,,,,,,,,,,,,,,,,,,,,,,,,,,101,001,2021_Sep_15_1145,joplin1,2021.2.3,60.13046826144607,
_train_cond.csv,1 0 0 0 0 0 0 0 0 1,8,categoryA,f,,,0,7,7,2,1,8,22,0,,,,,,,,,,,,,,,,,,,f,1,0.3585875420831144,,,,,,,,,,,,,,,,,,,,,,,,,,,,,,,101,001,2021_Sep_15_1145,joplin1,2021.2.3,60.13046826144607,
_train_cond.csv,1 1 0 0 0 0 0 0 1 1,6,categoryA,f,,,0,7,7,2,1,9,23,6,,,,,,,,,,,,,,,,,,,f,1,0.5181973751168698,,,,,,,,,,,,,,,,,,,,,,,,,,,,,,,101,001,2021_Sep_15_1145,joplin1,2021.2.3,60.13046826144607,
_train_cond.csv,0 0 1 0 0 0 0 1 0 0,8,categoryA,f,,,0,7,7,2,1,10,24,5,,,,,,,,,,,,,,,,,,,f,1,0.36735504190437496,,,,,,,,,,,,,,,,,,,,,,,,,,,,,,,101,001,2021_Sep_15_1145,joplin1,2021.2.3,60.13046826144607,
_train_cond.csv,1 1 0 1 1 1 1 0 1 1,2,categoryB,j,,,0,7,7,2,1,11,25,12,,,,,,,,,,,,,,,,,,,j,1,0.4627386671490967,,,,,,,,,,,,,,,,,,,,,,,,,,,,,,,101,001,2021_Sep_15_1145,joplin1,2021.2.3,60.13046826144607,
_train_cond.csv,0 0 0 1 1 1 1 0 0 0,6,categoryA,f,,,0,7,7,2,1,12,26,3,,,,,,,,,,,,,,,,,,,j,0,0.5607530840206891,,,,,,,,,,,,,,,,,,,,,,,,,,,,,,,101,001,2021_Sep_15_1145,joplin1,2021.2.3,60.13046826144607,
_train_cond.csv,0 0 1 1 1 1 1 1 0 0,4,categoryB,j,,,0,7,7,2,1,13,27,13,,,,,,,,,,,,,,,,,,,f,0,0.33621450001373887,,,,,,,,,,,,,,,,,,,,,,,,,,,,,,,101,001,2021_Sep_15_1145,joplin1,2021.2.3,60.13046826144607,
_train_cond.csv,0 0 1 0 1 1 0 1 0 0,6,categoryA,f,,,0,7,7,2,2,0,28,2,,,,,,,,,,,,,,,,,,,j,0,0.32753491681069136,,,,,,,,,,,,,,,,,,,,,,,,,,,,,,,101,001,2021_Sep_15_1145,joplin1,2021.2.3,60.13046826144607,
_train_cond.csv,1 1 0 1 0 0 1 0 1 1,4,categoryB,j,,,0,7,7,2,2,1,29,9,,,,,,,,,,,,,,,,,,,j,1,0.575447249924764,,,,,,,,,,,,,,,,,,,,,,,,,,,,,,,101,001,2021_Sep_15_1145,joplin1,2021.2.3,60.13046826144607,
_train_cond.csv,1 1 1 0 1 1 0 1 1 1,2,categoryB,j,,,0,7,7,2,2,2,30,11,,,,,,,,,,,,,,,,,,,j,1,0.13395145791582763,,,,,,,,,,,,,,,,,,,,,,,,,,,,,,,101,001,2021_Sep_15_1145,joplin1,2021.2.3,60.13046826144607,
_train_cond.csv,0 0 0 1 1 1 1 0 0 0,6,categoryA,f,,,0,7,7,2,2,3,31,3,,,,,,,,,,,,,,,,,,,f,1,0.4382670000195503,,,,,,,,,,,,,,,,,,,,,,,,,,,,,,,101,001,2021_Sep_15_1145,joplin1,2021.2.3,60.13046826144607,
_train_cond.csv,1 1 1 0 0 0 0 1 1 1,4,categoryB,j,,,0,7,7,2,2,4,32,10,,,,,,,,,,,,,,,,,,,j,1,0.05920529179275036,,,,,,,,,,,,,,,,,,,,,,,,,,,,,,,101,001,2021_Sep_15_1145,joplin1,2021.2.3,60.13046826144607,
_train_cond.csv,0 0 0 1 0 0 1 0 0 0,8,categoryA,f,,,0,7,7,2,2,5,33,4,,,,,,,,,,,,,,,,,,,f,1,0.8937126249074936,,,,,,,,,,,,,,,,,,,,,,,,,,,,,,,101,001,2021_Sep_15_1145,joplin1,2021.2.3,60.13046826144607,
_train_cond.csv,0 0 1 0 0 0 0 1 0 0,8,categoryA,f,,,0,7,7,2,2,6,34,5,,,,,,,,,,,,,,,,,,,f,1,0.6480588749982417,,,,,,,,,,,,,,,,,,,,,,,,,,,,,,,101,001,2021_Sep_15_1145,joplin1,2021.2.3,60.13046826144607,
_train_cond.csv,1 1 0 0 0 0 0 0 1 1,6,categoryA,f,,,0,7,7,2,2,7,35,6,,,,,,,,,,,,,,,,,,,j,0,0.4350462080910802,,,,,,,,,,,,,,,,,,,,,,,,,,,,,,,101,001,2021_Sep_15_1145,joplin1,2021.2.3,60.13046826144607,
_train_cond.csv,0 1 1 1 1 1 1 1 1 0,2,categoryB,j,,,0,7,7,2,2,8,36,7,,,,,,,,,,,,,,,,,,,f,0,0.4465652499347925,,,,,,,,,,,,,,,,,,,,,,,,,,,,,,,101,001,2021_Sep_15_1145,joplin1,2021.2.3,60.13046826144607,
_train_cond.csv,0 0 1 1 1 1 1 1 0 0,4,categoryB,j,,,0,7,7,2,2,9,37,13,,,,,,,,,,,,,,,,,,,j,1,0.3144642498809844,,,,,,,,,,,,,,,,,,,,,,,,,,,,,,,101,001,2021_Sep_15_1145,joplin1,2021.2.3,60.13046826144607,
_train_cond.csv,1 0 0 0 0 0 0 0 0 1,8,categoryA,f,,,0,7,7,2,2,10,38,0,,,,,,,,,,,,,,,,,,,f,1,0.9709296249784529,,,,,,,,,,,,,,,,,,,,,,,,,,,,,,,101,001,2021_Sep_15_1145,joplin1,2021.2.3,60.13046826144607,
_train_cond.csv,1 0 1 1 1 1 1 1 0 1,2,categoryB,j,,,0,7,7,2,2,11,39,8,,,,,,,,,,,,,,,,,,,j,1,0.32274654204957187,,,,,,,,,,,,,,,,,,,,,,,,,,,,,,,101,001,2021_Sep_15_1145,joplin1,2021.2.3,60.13046826144607,
_train_cond.csv,1 1 0 1 1 1 1 0 1 1,2,categoryB,j,,,0,7,7,2,2,12,40,12,,,,,,,,,,,,,,,,,,,j,1,0.36759662511758506,,,,,,,,,,,,,,,,,,,,,,,,,,,,,,,101,001,2021_Sep_15_1145,joplin1,2021.2.3,60.13046826144607,
_train_cond.csv,0 1 0 0 0 0 0 0 1 0,8,categoryA,f,,,0,7,7,2,2,13,41,1,,,,,,,,,,,,,,,,,,,f,1,0.48676191712729633,,,,,,,,,,,,,,,,,,,,,,,,,,,,,,,101,001,2021_Sep_15_1145,joplin1,2021.2.3,60.13046826144607,
_train_cond.csv,,,,,,,0,7,7,2,,,,,,,,,,,,,,,,,,,,,,,,,,space,27.24102812516503,,,,,,,,,,,,,,,,,,,,,,,,,,,,,101,001,2021_Sep_15_1145,joplin1,2021.2.3,60.13046826144607,
,,,,,,,,,,,,,,,,,,,,,,,,,,,,,,,,,,,,,,q,21.255807250039652,,,,,,,,,,,,,,,,,,,,,,,,,,,101,001,2021_Sep_15_1145,joplin1,2021.2.3,60.13046826144607,
,,,,,,,,,,,,,,,,,,,,,,,,,,,,,,,,,,,,,,,,f,19.02815808285959,,,,,,,,,,,,,,,,,,,,,,,,,101,001,2021_Sep_15_1145,joplin1,2021.2.3,60.13046826144607,
,,,,,,,,,,,,,,,,,,,,,,,,,,,,,,,,,,,,,,,,,,space,8.665116291958839,,,,,,,,,,,,,,,,,,,,,,,101,001,2021_Sep_15_1145,joplin1,2021.2.3,60.13046826144607,
,,,,,,,,,,,,,,,,,,,,,,,,,,,,,,,,,,,,,,,,,,,,space,22.398009957978502,,,,,,,,,,,,,,,,,,,,,101,001,2021_Sep_15_1145,joplin1,2021.2.3,60.13046826144607,
,1 1 1 0 1 1 0 1 1 1,2,categoryB,j,genfile2.csv,1,,,,,,,,,0,0,0,1,0,0,0,13,,,,,,,,,,,,,,,,,,,,,,,,j,1,0.8764634591061622,,,,,,,,,,,,,,,,,,101,001,2021_Sep_15_1145,joplin1,2021.2.3,60.13046826144607,
,0 0 0 1 1 0 0 0 0 1,7,categoryA,f,genfile2.csv,0,,,,,,,,,0,0,0,1,0,1,1,29,,,,,,,,,,,,,,,,,,,,,,,,f,1,0.4623972079716623,,,,,,,,,,,,,,,,,,101,001,2021_Sep_15_1145,joplin1,2021.2.3,60.13046826144607,
,1 1 0 0 0 0 0 0 1 1,6,categoryA,f,genfile2.csv,1,,,,,,,,,0,0,0,1,0,2,2,8,,,,,,,,,,,,,,,,,,,,,,,,j,0,0.40324983396567404,,,,,,,,,,,,,,,,,,101,001,2021_Sep_15_1145,joplin1,2021.2.3,60.13046826144607,
,0 1 0 0 1 0 0 1 0 0,7,categoryA,f,genfile2.csv,0,,,,,,,,,0,0,0,1,0,3,3,30,,,,,,,,,,,,,,,,,,,,,,,,f,1,0.5661675420124084,,,,,,,,,,,,,,,,,,101,001,2021_Sep_15_1145,joplin1,2021.2.3,60.13046826144607,
,0 0 1 1 1 1 1 1 0 0,4,categoryB,j,genfile2.csv,1,,,,,,,,,0,0,0,1,0,4,4,15,,,,,,,,,,,,,,,,,,,,,,,,f,0,0.7486698750872165,,,,,,,,,,,,,,,,,,101,001,2021_Sep_15_1145,joplin1,2021.2.3,60.13046826144607,
,0 0 0 1 0 0 1 0 0 0,8,categoryA,f,genfile2.csv,1,,,,,,,,,0,0,0,1,0,5,5,6,,,,,,,,,,,,,,,,,,,,,,,,f,1,0.34842125000432134,,,,,,,,,,,,,,,,,,101,001,2021_Sep_15_1145,joplin1,2021.2.3,60.13046826144607,
,0 0 0 0 0 1 0 1 0 0,8,categoryA,f,genfile2.csv,0,,,,,,,,,0,0,0,1,0,6,6,24,,,,,,,,,,,,,,,,,,,,,,,,j,0,0.44169812509790063,,,,,,,,,,,,,,,,,,101,001,2021_Sep_15_1145,joplin1,2021.2.3,60.13046826144607,
,1 1 0 0 1 0 1 1 1 1,3,categoryB,j,genfile2.csv,0,,,,,,,,,0,0,0,1,0,7,7,43,,,,,,,,,,,,,,,,,,,,,,,,j,1,0.31377362506464124,,,,,,,,,,,,,,,,,,101,001,2021_Sep_15_1145,joplin1,2021.2.3,60.13046826144607,
,0 1 1 1 1 1 1 1 1 0,2,categoryB,j,genfile2.csv,1,,,,,,,,,0,0,0,1,0,8,8,9,,,,,,,,,,,,,,,,,,,,,,,,j,1,0.7395479578990489,,,,,,,,,,,,,,,,,,101,001,2021_Sep_15_1145,joplin1,2021.2.3,60.13046826144607,
,1 1 0 1 1 1 1 1 0 1,2,categoryB,j,genfile2.csv,0,,,,,,,,,0,0,0,1,0,9,9,47,,,,,,,,,,,,,,,,,,,,,,,,f,0,0.7293209158815444,,,,,,,,,,,,,,,,,,101,001,2021_Sep_15_1145,joplin1,2021.2.3,60.13046826144607,
,0 0 1 0 1 1 1 1 1 0,4,categoryB,j,genfile2.csv,0,,,,,,,,,0,0,0,1,0,10,10,36,,,,,,,,,,,,,,,,,,,,,,,,j,1,0.41630916693247855,,,,,,,,,,,,,,,,,,101,001,2021_Sep_15_1145,joplin1,2021.2.3,60.13046826144607,
,0 1 0 1 0 0 1 0 1 0,6,categoryA,f,genfile2.csv,0,,,,,,,,,0,0,0,1,0,11,11,35,,,,,,,,,,,,,,,,,,,,,,,,j,0,0.26757887518033385,,,,,,,,,,,,,,,,,,101,001,2021_Sep_15_1145,joplin1,2021.2.3,60.13046826144607,
,1 1 0 0 0 0 0 1 0 1,6,categoryA,f,genfile2.csv,0,,,,,,,,,0,0,0,1,0,12,12,33,,,,,,,,,,,,,,,,,,,,,,,,j,0,0.2749273341614753,,,,,,,,,,,,,,,,,,101,001,2021_Sep_15_1145,joplin1,2021.2.3,60.13046826144607,
,0 0 0 0 0 0 0 1 0 0,9,categoryA,f,genfile2.csv,0,,,,,,,,,0,0,0,1,0,13,13,18,,,,,,,,,,,,,,,,,,,,,,,,f,1,0.40373758296482265,,,,,,,,,,,,,,,,,,101,001,2021_Sep_15_1145,joplin1,2021.2.3,60.13046826144607,
,1 0 0 0 0 0 0 0 0 0,9,categoryA,f,genfile2.csv,0,,,,,,,,,0,0,0,1,0,14,14,16,,,,,,,,,,,,,,,,,,,,,,,,f,1,0.2641932088881731,,,,,,,,,,,,,,,,,,101,001,2021_Sep_15_1145,joplin1,2021.2.3,60.13046826144607,
,0 0 1 0 0 0 0 1 0 0,8,categoryA,f,genfile2.csv,1,,,,,,,,,0,0,0,1,0,15,15,7,,,,,,,,,,,,,,,,,,,,,,,,f,1,0.19542474998161197,,,,,,,,,,,,,,,,,,101,001,2021_Sep_15_1145,joplin1,2021.2.3,60.13046826144607,
,1 1 1 1 1 1 0 1 1 1,1,categoryB,j,genfile2.csv,0,,,,,,,,,0,0,0,1,0,16,16,52,,,,,,,,,,,,,,,,,,,,,,,,j,1,0.12076962483115494,,,,,,,,,,,,,,,,,,101,001,2021_Sep_15_1145,joplin1,2021.2.3,60.13046826144607,
,1 1 0 0 1 0 0 0 0 1,6,categoryA,f,genfile2.csv,0,,,,,,,,,0,0,0,1,0,17,17,32,,,,,,,,,,,,,,,,,,,,,,,,f,1,0.4078795409295708,,,,,,,,,,,,,,,,,,101,001,2021_Sep_15_1145,joplin1,2021.2.3,60.13046826144607,
,0 0 0 1 0 0 0 0 0 0,9,categoryA,f,genfile2.csv,0,,,,,,,,,0,0,0,1,0,18,18,19,,,,,,,,,,,,,,,,,,,,,,,,f,1,0.3238422500435263,,,,,,,,,,,,,,,,,,101,001,2021_Sep_15_1145,joplin1,2021.2.3,60.13046826144607,
,1 1 1 1 1 1 1 1 1 1,0,categoryB,j,genfile2.csv,0,,,,,,,,,0,0,0,1,0,19,19,1,,,,,,,,,,,,,,,,,,,,,,,,j,1,0.2518484580796212,,,,,,,,,,,,,,,,,,101,001,2021_Sep_15_1145,joplin1,2021.2.3,60.13046826144607,
,1 0 0 1 0 0 0 0 0 0,8,categoryA,f,genfile2.csv,0,,,,,,,,,0,0,0,1,0,20,20,25,,,,,,,,,,,,,,,,,,,,,,,,f,1,0.23789325007237494,,,,,,,,,,,,,,,,,,101,001,2021_Sep_15_1145,joplin1,2021.2.3,60.13046826144607,
,1 1 0 1 1 1 1 0 1 1,2,categoryB,j,genfile2.csv,1,,,,,,,,,0,0,0,1,0,21,21,14,,,,,,,,,,,,,,,,,,,,,,,,j,1,0.26602958305738866,,,,,,,,,,,,,,,,,,101,001,2021_Sep_15_1145,joplin1,2021.2.3,60.13046826144607,
,1 1 1 1 0 1 1 1 1 1,1,categoryB,j,genfile2.csv,0,,,,,,,,,0,0,0,1,0,22,22,54,,,,,,,,,,,,,,,,,,,,,,,,j,1,0.2591819579247385,,,,,,,,,,,,,,,,,,101,001,2021_Sep_15_1145,joplin1,2021.2.3,60.13046826144607,
,1 1 1 1 1 0 1 1 1 0,2,categoryB,j,genfile2.csv,0,,,,,,,,,0,0,0,1,0,23,23,48,,,,,,,,,,,,,,,,,,,,,,,,j,1,0.33294599992223084,,,,,,,,,,,,,,,,,,101,001,2021_Sep_15_1145,joplin1,2021.2.3,60.13046826144607,
,1 1 1 1 0 1 1 1 1 0,2,categoryB,j,genfile2.csv,0,,,,,,,,,0,0,0,1,0,24,24,46,,,,,,,,,,,,,,,,,,,,,,,,j,1,0.29196429206058383,,,,,,,,,,,,,,,,,,101,001,2021_Sep_15_1145,joplin1,2021.2.3,60.13046826144607,
,1 1 1 0 1 1 1 1 1 1,1,categoryB,j,genfile2.csv,0,,,,,,,,,0,0,0,1,0,25,25,51,,,,,,,,,,,,,,,,,,,,,,,,j,1,0.237165667116642,,,,,,,,,,,,,,,,,,101,001,2021_Sep_15_1145,joplin1,2021.2.3,60.13046826144607,
,0 0 0 0 0 0 0 0 0 0,10,categoryA,f,genfile2.csv,0,,,,,,,,,0,0,0,1,0,26,26,0,,,,,,,,,,,,,,,,,,,,,,,,f,1,0.3521159999072552,,,,,,,,,,,,,,,,,,101,001,2021_Sep_15_1145,joplin1,2021.2.3,60.13046826144607,
,0 0 1 1 0 1 0 0 0 0,7,categoryA,f,genfile2.csv,0,,,,,,,,,0,0,0,1,0,27,27,27,,,,,,,,,,,,,,,,,,,,,,,,f,1,0.6060811658389866,,,,,,,,,,,,,,,,,,101,001,2021_Sep_15_1145,joplin1,2021.2.3,60.13046826144607,
,1 1 0 1 1 1 1 1 1 1,1,categoryB,j,genfile2.csv,0,,,,,,,,,0,0,0,1,0,28,28,53,,,,,,,,,,,,,,,,,,,,,,,,j,1,0.38636558316648006,,,,,,,,,,,,,,,,,,101,001,2021_Sep_15_1145,joplin1,2021.2.3,60.13046826144607,
,1 1 0 0 1 1 0 1 1 1,3,categoryB,j,genfile2.csv,0,,,,,,,,,0,0,0,1,0,29,29,42,,,,,,,,,,,,,,,,,,,,,,,,j,1,0.42216345900669694,,,,,,,,,,,,,,,,,,101,001,2021_Sep_15_1145,joplin1,2021.2.3,60.13046826144607,
,0 0 1 1 0 1 1 1 0 1,4,categoryB,j,genfile2.csv,0,,,,,,,,,0,0,0,1,0,30,30,37,,,,,,,,,,,,,,,,,,,,,,,,j,1,0.4014251669868827,,,,,,,,,,,,,,,,,,101,001,2021_Sep_15_1145,joplin1,2021.2.3,60.13046826144607,
,1 0 0 0 0 1 0 0 0 0,8,categoryA,f,genfile2.csv,0,,,,,,,,,0,0,0,1,0,31,31,21,,,,,,,,,,,,,,,,,,,,,,,,j,0,0.5893256668932736,,,,,,,,,,,,,,,,,,101,001,2021_Sep_15_1145,joplin1,2021.2.3,60.13046826144607,
,1 1 1 1 1 1 1 0 1 1,1,categoryB,j,genfile2.csv,0,,,,,,,,,0,0,0,1,0,32,32,55,,,,,,,,,,,,,,,,,,,,,,,,j,1,0.4827621248550713,,,,,,,,,,,,,,,,,,101,001,2021_Sep_15_1145,joplin1,2021.2.3,60.13046826144607,
,0 0 0 0 0 0 1 0 1 1,7,categoryA,f,genfile2.csv,0,,,,,,,,,0,0,0,1,0,33,33,28,,,,,,,,,,,,,,,,,,,,,,,,f,1,0.3800611251499504,,,,,,,,,,,,,,,,,,101,001,2021_Sep_15_1145,joplin1,2021.2.3,60.13046826144607,
,0 0 0 1 1 1 1 0 0 0,6,categoryA,f,genfile2.csv,1,,,,,,,,,0,0,0,1,0,34,34,5,,,,,,,,,,,,,,,,,,,,,,,,f,1,0.48329529096372426,,,,,,,,,,,,,,,,,,101,001,2021_Sep_15_1145,joplin1,2021.2.3,60.13046826144607,
,1 1 0 1 1 0 0 1 1 0,4,categoryB,j,genfile2.csv,0,,,,,,,,,0,0,0,1,0,35,35,40,,,,,,,,,,,,,,,,,,,,,,,,f,0,0.5330356669146568,,,,,,,,,,,,,,,,,,101,001,2021_Sep_15_1145,joplin1,2021.2.3,60.13046826144607,
,0 0 1 1 0 0 0 0 0 0,8,categoryA,f,genfile2.csv,0,,,,,,,,,0,0,0,1,0,36,36,22,,,,,,,,,,,,,,,,,,,,,,,,f,1,0.6997428750619292,,,,,,,,,,,,,,,,,,101,001,2021_Sep_15_1145,joplin1,2021.2.3,60.13046826144607,
,0 1 0 0 0 0 0 0 1 0,8,categoryA,f,genfile2.csv,1,,,,,,,,,0,0,0,1,0,37,37,3,,,,,,,,,,,,,,,,,,,,,,,,f,1,0.5387598751112819,,,,,,,,,,,,,,,,,,101,001,2021_Sep_15_1145,joplin1,2021.2.3,60.13046826144607,
,1 1 0 1 1 0 1 1 1 0,3,categoryB,j,genfile2.csv,0,,,,,,,,,0,0,0,1,0,38,38,45,,,,,,,,,,,,,,,,,,,,,,,,j,1,0.26263804105110466,,,,,,,,,,,,,,,,,,101,001,2021_Sep_15_1145,joplin1,2021.2.3,60.13046826144607,
,1 1 1 1 1 0 0 0 0 1,4,categoryB,j,genfile2.csv,0,,,,,,,,,0,0,0,1,0,39,39,39,,,,,,,,,,,,,,,,,,,,,,,,j,1,0.3401243749540299,,,,,,,,,,,,,,,,,,101,001,2021_Sep_15_1145,joplin1,2021.2.3,60.13046826144607,
,0 1 0 0 1 1 0 1 0 0,6,categoryA,f,genfile2.csv,0,,,,,,,,,0,0,0,1,0,40,40,31,,,,,,,,,,,,,,,,,,,,,,,,j,0,0.6089264161419123,,,,,,,,,,,,,,,,,,101,001,2021_Sep_15_1145,joplin1,2021.2.3,60.13046826144607,
,1 1 1 0 0 0 0 1 1 1,4,categoryB,j,genfile2.csv,1,,,,,,,,,0,0,0,1,0,41,41,12,,,,,,,,,,,,,,,,,,,,,,,,j,1,0.3100876249372959,,,,,,,,,,,,,,,,,,101,001,2021_Sep_15_1145,joplin1,2021.2.3,60.13046826144607,
,1 1 0 1 0 0 1 0 1 1,4,categoryB,j,genfile2.csv,1,,,,,,,,,0,0,0,1,0,42,42,11,,,,,,,,,,,,,,,,,,,,,,,,j,1,0.4400141250807792,,,,,,,,,,,,,,,,,,101,001,2021_Sep_15_1145,joplin1,2021.2.3,60.13046826144607,
,0 0 0 1 1 0 0 0 0 0,8,categoryA,f,genfile2.csv,0,,,,,,,,,0,0,0,1,0,43,43,23,,,,,,,,,,,,,,,,,,,,,,,,f,1,0.5145005418453366,,,,,,,,,,,,,,,,,,101,001,2021_Sep_15_1145,joplin1,2021.2.3,60.13046826144607,
,1 1 0 0 0 0 1 0 1 0,6,categoryA,f,genfile2.csv,0,,,,,,,,,0,0,0,1,0,44,44,34,,,,,,,,,,,,,,,,,,,,,,,,j,0,0.3383103748783469,,,,,,,,,,,,,,,,,,101,001,2021_Sep_15_1145,joplin1,2021.2.3,60.13046826144607,
,1 0 1 1 1 1 1 1 0 1,2,categoryB,j,genfile2.csv,1,,,,,,,,,0,0,0,1,0,45,45,10,,,,,,,,,,,,,,,,,,,,,,,,j,1,0.29831787501461804,,,,,,,,,,,,,,,,,,101,001,2021_Sep_15_1145,joplin1,2021.2.3,60.13046826144607,
,0 0 1 0 1 1 0 1 0 0,6,categoryA,f,genfile2.csv,1,,,,,,,,,0,0,0,1,0,46,46,4,,,,,,,,,,,,,,,,,,,,,,,,f,1,0.4838993751909584,,,,,,,,,,,,,,,,,,101,001,2021_Sep_15_1145,joplin1,2021.2.3,60.13046826144607,
,1 0 0 0 0 0 0 0 0 1,8,categoryA,f,genfile2.csv,1,,,,,,,,,0,0,0,1,0,47,47,2,,,,,,,,,,,,,,,,,,,,,,,,j,0,0.39739970909431577,,,,,,,,,,,,,,,,,,101,001,2021_Sep_15_1145,joplin1,2021.2.3,60.13046826144607,
,0 1 1 1 1 0 0 0 1 1,4,categoryB,j,genfile2.csv,0,,,,,,,,,0,0,0,1,0,48,48,38,,,,,,,,,,,,,,,,,,,,,,,,j,1,0.6561329578980803,,,,,,,,,,,,,,,,,,101,001,2021_Sep_15_1145,joplin1,2021.2.3,60.13046826144607,
,0 1 1 0 1 1 1 1 0 1,3,categoryB,j,genfile2.csv,0,,,,,,,,,0,0,0,1,0,49,49,44,,,,,,,,,,,,,,,,,,,,,,,,j,1,0.3382065000478178,,,,,,,,,,,,,,,,,,101,001,2021_Sep_15_1145,joplin1,2021.2.3,60.13046826144607,
,0 0 0 0 0 1 1 0 0 1,7,categoryA,f,genfile2.csv,0,,,,,,,,,0,0,0,1,0,50,50,26,,,,,,,,,,,,,,,,,,,,,,,,j,0,0.30499720806255937,,,,,,,,,,,,,,,,,,101,001,2021_Sep_15_1145,joplin1,2021.2.3,60.13046826144607,
,0 1 1 1 1 0 0 1 1 1,3,categoryB,j,genfile2.csv,0,,,,,,,,,0,0,0,1,0,51,51,41,,,,,,,,,,,,,,,,,,,,,,,,j,1,0.3453658330254257,,,,,,,,,,,,,,,,,,101,001,2021_Sep_15_1145,joplin1,2021.2.3,60.13046826144607,
,0 0 0 0 0 0 1 0 0 0,9,categoryA,f,genfile2.csv,0,,,,,,,,,0,0,0,1,0,52,52,17,,,,,,,,,,,,,,,,,,,,,,,,f,1,0.2804608750157058,,,,,,,,,,,,,,,,,,101,001,2021_Sep_15_1145,joplin1,2021.2.3,60.13046826144607,
,1 1 1 0 1 1 1 1 0 1,2,categoryB,j,genfile2.csv,0,,,,,,,,,0,0,0,1,0,53,53,50,,,,,,,,,,,,,,,,,,,,,,,,j,1,0.24210133287124336,,,,,,,,,,,,,,,,,,101,001,2021_Sep_15_1145,joplin1,2021.2.3,60.13046826144607,
,0 0 1 0 0 0 0 0 0 0,9,categoryA,f,genfile2.csv,0,,,,,,,,,0,0,0,1,0,54,54,20,,,,,,,,,,,,,,,,,,,,,,,,f,1,0.27651129104197025,,,,,,,,,,,,,,,,,,101,001,2021_Sep_15_1145,joplin1,2021.2.3,60.13046826144607,
,1 1 1 1 1 1 1 0 0 1,2,categoryB,j,genfile2.csv,0,,,,,,,,,0,0,0,1,0,55,55,49,,,,,,,,,,,,,,,,,,,,,,,,j,1,0.04717837506905198,,,,,,,,,,,,,,,,,,101,001,2021_Sep_15_1145,joplin1,2021.2.3,60.13046826144607,
,,,,,genfile2.csv,,,,,,,,,,0,0,0,1,,,,,,,,,,,,,,,,,,space,3.4352287088986486,,,,,,,,,,,,,,,,,,,,,,,,,,,,,101,001,2021_Sep_15_1145,joplin1,2021.2.3,60.13046826144607,
,1 0 0 0 0 0 1 0 0 0,8,categoryA,f,genfile1.csv,0,,,,,,,,,0,1,1,0,0,0,0,21,,,,,,,,,,,,,,,,,,,,,,,,f,1,0.004720499971881509,,,,,,,,,,,,,,,,,,101,001,2021_Sep_15_1145,joplin1,2021.2.3,60.13046826144607,
,1 1 1 0 1 1 0 1 1 1,2,categoryB,j,genfile1.csv,1,,,,,,,,,0,1,1,0,0,1,1,13,,,,,,,,,,,,,,,,,,,,,,,,j,1,0.2668291248846799,,,,,,,,,,,,,,,,,,101,001,2021_Sep_15_1145,joplin1,2021.2.3,60.13046826144607,
,0 0 0 1 0 1 1 1 1 1,4,categoryB,j,genfile1.csv,0,,,,,,,,,0,1,1,0,0,2,2,39,,,,,,,,,,,,,,,,,,,,,,,,f,0,0.29253283399157226,,,,,,,,,,,,,,,,,,101,001,2021_Sep_15_1145,joplin1,2021.2.3,60.13046826144607,
,1 0 1 1 0 0 0 1 0 0,6,categoryA,f,genfile1.csv,0,,,,,,,,,0,1,1,0,0,3,3,33,,,,,,,,,,,,,,,,,,,,,,,,f,1,0.16600870806723833,,,,,,,,,,,,,,,,,,101,001,2021_Sep_15_1145,joplin1,2021.2.3,60.13046826144607,
,0 0 1 0 0 1 0 0 0 0,8,categoryA,f,genfile1.csv,0,,,,,,,,,0,1,1,0,0,4,4,22,,,,,,,,,,,,,,,,,,,,,,,,f,1,0.2579402909614146,,,,,,,,,,,,,,,,,,101,001,2021_Sep_15_1145,joplin1,2021.2.3,60.13046826144607,
,0 1 1 1 1 1 1 0 0 1,3,categoryB,j,genfile1.csv,0,,,,,,,,,0,1,1,0,0,5,5,45,,,,,,,,,,,,,,,,,,,,,,,,j,1,0.29219708289019763,,,,,,,,,,,,,,,,,,101,001,2021_Sep_15_1145,joplin1,2021.2.3,60.13046826144607,
,1 1 1 1 1 0 1 1 1 1,1,categoryB,j,genfile1.csv,0,,,,,,,,,0,1,1,0,0,6,6,51,,,,,,,,,,,,,,,,,,,,,,,,j,1,0.4221288750413805,,,,,,,,,,,,,,,,,,101,001,2021_Sep_15_1145,joplin1,2021.2.3,60.13046826144607,
,0 0 0 0 0 0 0 0 0 0,10,categoryA,f,genfile1.csv,0,,,,,,,,,0,1,1,0,0,7,7,0,,,,,,,,,,,,,,,,,,,,,,,,f,1,0.23470683302730322,,,,,,,,,,,,,,,,,,101,001,2021_Sep_15_1145,joplin1,2021.2.3,60.13046826144607,
,0 1 1 1 0 1 0 0 0 0,6,categoryA,f,genfile1.csv,0,,,,,,,,,0,1,1,0,0,8,8,32,,,,,,,,,,,,,,,,,,,,,,,,f,1,0.3413307920563966,,,,,,,,,,,,,,,,,,101,001,2021_Sep_15_1145,joplin1,2021.2.3,60.13046826144607,
,0 0 0 0 1 0 0 0 0 0,9,categoryA,f,genfile1.csv,0,,,,,,,,,0,1,1,0,0,9,9,20,,,,,,,,,,,,,,,,,,,,,,,,f,1,0.29966104216873646,,,,,,,,,,,,,,,,,,101,001,2021_Sep_15_1145,joplin1,2021.2.3,60.13046826144607,
,0 0 0 1 1 1 1 0 0 0,6,categoryA,f,genfile1.csv,1,,,,,,,,,0,1,1,0,0,10,10,5,,,,,,,,,,,,,,,,,,,,,,,,j,0,0.3487205000128597,,,,,,,,,,,,,,,,,,101,001,2021_Sep_15_1145,joplin1,2021.2.3,60.13046826144607,
,0 0 1 1 1 1 1 1 0 0,4,categoryB,j,genfile1.csv,1,,,,,,,,,0,1,1,0,0,11,11,15,,,,,,,,,,,,,,,,,,,,,,,,j,1,0.25291804200969636,,,,,,,,,,,,,,,,,,101,001,2021_Sep_15_1145,joplin1,2021.2.3,60.13046826144607,
,1 0 0 0 0 0 1 1 0 0,7,categoryA,f,genfile1.csv,0,,,,,,,,,0,1,1,0,0,12,12,27,,,,,,,,,,,,,,,,,,,,,,,,j,0,0.14357316703535616,,,,,,,,,,,,,,,,,,101,001,2021_Sep_15_1145,joplin1,2021.2.3,60.13046826144607,
,1 1 0 1 0 0 1 0 1 1,4,categoryB,j,genfile1.csv,1,,,,,,,,,0,1,1,0,0,13,13,11,,,,,,,,,,,,,,,,,,,,,,,,j,1,0.2802085829898715,,,,,,,,,,,,,,,,,,101,001,2021_Sep_15_1145,joplin1,2021.2.3,60.13046826144607,
,0 1 1 0 1 1 0 0 1 1,4,categoryB,j,genfile1.csv,0,,,,,,,,,0,1,1,0,0,14,14,38,,,,,,,,,,,,,,,,,,,,,,,,j,1,0.24158783303573728,,,,,,,,,,,,,,,,,,101,001,2021_Sep_15_1145,joplin1,2021.2.3,60.13046826144607,
,0 1 1 1 1 1 1 1 1 0,2,categoryB,j,genfile1.csv,1,,,,,,,,,0,1,1,0,0,15,15,9,,,,,,,,,,,,,,,,,,,,,,,,j,1,0.253252417081967,,,,,,,,,,,,,,,,,,101,001,2021_Sep_15_1145,joplin1,2021.2.3,60.13046826144607,
,1 0 1 1 1 1 1 1 1 0,2,categoryB,j,genfile1.csv,0,,,,,,,,,0,1,1,0,0,16,16,46,,,,,,,,,,,,,,,,,,,,,,,,j,1,0.27211808296851814,,,,,,,,,,,,,,,,,,101,001,2021_Sep_15_1145,joplin1,2021.2.3,60.13046826144607,
,1 1 0 0 1 0 0 0 0 0,7,categoryA,f,genfile1.csv,0,,,,,,,,,0,1,1,0,0,17,17,28,,,,,,,,,,,,,,,,,,,,,,,,j,0,0.3513778750784695,,,,,,,,,,,,,,,,,,101,001,2021_Sep_15_1145,joplin1,2021.2.3,60.13046826144607,
,1 0 0 0 1 1 1 1 1 0,4,categoryB,j,genfile1.csv,0,,,,,,,,,0,1,1,0,0,18,18,36,,,,,,,,,,,,,,,,,,,,,,,,j,1,0.28612200007773936,,,,,,,,,,,,,,,,,,101,001,2021_Sep_15_1145,joplin1,2021.2.3,60.13046826144607,
,0 0 1 1 1 1 1 1 1 1,2,categoryB,j,genfile1.csv,0,,,,,,,,,0,1,1,0,0,19,19,47,,,,,,,,,,,,,,,,,,,,,,,,j,1,0.27145695802755654,,,,,,,,,,,,,,,,,,101,001,2021_Sep_15_1145,joplin1,2021.2.3,60.13046826144607,
,1 0 1 1 1 1 1 1 0 1,2,categoryB,j,genfile1.csv,1,,,,,,,,,0,1,1,0,0,20,20,10,,,,,,,,,,,,,,,,,,,,,,,,j,1,0.24958887486718595,,,,,,,,,,,,,,,,,,101,001,2021_Sep_15_1145,joplin1,2021.2.3,60.13046826144607,
,1 1 1 1 1 0 1 0 0 0,4,categoryB,j,genfile1.csv,0,,,,,,,,,0,1,1,0,0,21,21,37,,,,,,,,,,,,,,,,,,,,,,,,f,0,0.12398879113607109,,,,,,,,,,,,,,,,,,101,001,2021_Sep_15_1145,joplin1,2021.2.3,60.13046826144607,
,0 0 0 0 0 0 0 0 1 0,9,categoryA,f,genfile1.csv,0,,,,,,,,,0,1,1,0,0,22,22,17,,,,,,,,,,,,,,,,,,,,,,,,f,1,0.1402155829127878,,,,,,,,,,,,,,,,,,101,001,2021_Sep_15_1145,joplin1,2021.2.3,60.13046826144607,
,0 0 0 0 0 1 0 0 0 0,9,categoryA,f,genfile1.csv,0,,,,,,,,,0,1,1,0,0,23,23,19,,,,,,,,,,,,,,,,,,,,,,,,f,1,0.18701304192654788,,,,,,,,,,,,,,,,,,101,001,2021_Sep_15_1145,joplin1,2021.2.3,60.13046826144607,
,0 0 1 0 0 0 0 1 0 0,8,categoryA,f,genfile1.csv,1,,,,,,,,,0,1,1,0,0,24,24,7,,,,,,,,,,,,,,,,,,,,,,,,f,1,0.12944058398716152,,,,,,,,,,,,,,,,,,101,001,2021_Sep_15_1145,joplin1,2021.2.3,60.13046826144607,
,0 1 0 0 0 1 1 1 0 0,6,categoryA,f,genfile1.csv,0,,,,,,,,,0,1,1,0,0,25,25,34,,,,,,,,,,,,,,,,,,,,,,,,j,0,0.2862722498830408,,,,,,,,,,,,,,,,,,101,001,2021_Sep_15_1145,joplin1,2021.2.3,60.13046826144607,
,0 1 1 1 1 1 1 1 1 1,1,categoryB,j,genfile1.csv,0,,,,,,,,,0,1,1,0,0,26,26,54,,,,,,,,,,,,,,,,,,,,,,,,j,1,0.271464291960001,,,,,,,,,,,,,,,,,,101,001,2021_Sep_15_1145,joplin1,2021.2.3,60.13046826144607,
,1 1 0 0 0 0 0 0 1 1,6,categoryA,f,genfile1.csv,1,,,,,,,,,0,1,1,0,0,27,27,8,,,,,,,,,,,,,,,,,,,,,,,,j,0,0.33996016695164144,,,,,,,,,,,,,,,,,,101,001,2021_Sep_15_1145,joplin1,2021.2.3,60.13046826144607,
,1 1 1 1 1 1 1 1 1 0,1,categoryB,j,genfile1.csv,0,,,,,,,,,0,1,1,0,0,28,28,52,,,,,,,,,,,,,,,,,,,,,,,,f,0,0.27271499997004867,,,,,,,,,,,,,,,,,,101,001,2021_Sep_15_1145,joplin1,2021.2.3,60.13046826144607,
,1 0 1 1 1 1 1 1 1 1,1,categoryB,j,genfile1.csv,0,,,,,,,,,0,1,1,0,0,29,29,55,,,,,,,,,,,,,,,,,,,,,,,,j,1,0.2182768329512328,,,,,,,,,,,,,,,,,,101,001,2021_Sep_15_1145,joplin1,2021.2.3,60.13046826144607,
,1 1 0 1 0 1 1 1 1 0,3,categoryB,j,genfile1.csv,0,,,,,,,,,0,1,1,0,0,30,30,42,,,,,,,,,,,,,,,,,,,,,,,,j,1,0.3025872919242829,,,,,,,,,,,,,,,,,,101,001,2021_Sep_15_1145,joplin1,2021.2.3,60.13046826144607,
,0 0 0 0 1 1 0 0 0 0,8,categoryA,f,genfile1.csv,0,,,,,,,,,0,1,1,0,0,31,31,24,,,,,,,,,,,,,,,,,,,,,,,,f,1,0.3094448752235621,,,,,,,,,,,,,,,,,,101,001,2021_Sep_15_1145,joplin1,2021.2.3,60.13046826144607,
,0 1 0 0 0 0 0 0 1 0,8,categoryA,f,genfile1.csv,1,,,,,,,,,0,1,1,0,0,32,32,3,,,,,,,,,,,,,,,,,,,,,,,,f,1,0.39088395796716213,,,,,,,,,,,,,,,,,,101,001,2021_Sep_15_1145,joplin1,2021.2.3,60.13046826144607,
,0 1 0 0 1 0 0 0 0 0,8,categoryA,f,genfile1.csv,0,,,,,,,,,0,1,1,0,0,33,33,25,,,,,,,,,,,,,,,,,,,,,,,,f,1,0.3229713330511004,,,,,,,,,,,,,,,,,,101,001,2021_Sep_15_1145,joplin1,2021.2.3,60.13046826144607,
,0 1 1 1 1 1 0 1 0 0,4,categoryB,j,genfile1.csv,0,,,,,,,,,0,1,1,0,0,34,34,40,,,,,,,,,,,,,,,,,,,,,,,,f,0,0.48103687493130565,,,,,,,,,,,,,,,,,,101,001,2021_Sep_15_1145,joplin1,2021.2.3,60.13046826144607,
,1 1 0 0 0 0 0 0 0 0,8,categoryA,f,genfile1.csv,0,,,,,,,,,0,1,1,0,0,35,35,23,,,,,,,,,,,,,,,,,,,,,,,,j,0,0.41967270779423416,,,,,,,,,,,,,,,,,,101,001,2021_Sep_15_1145,joplin1,2021.2.3,60.13046826144607,
,0 0 1 0 1 1 0 1 0 0,6,categoryA,f,genfile1.csv,1,,,,,,,,,0,1,1,0,0,36,36,4,,,,,,,,,,,,,,,,,,,,,,,,f,1,0.29428145894780755,,,,,,,,,,,,,,,,,,101,001,2021_Sep_15_1145,joplin1,2021.2.3,60.13046826144607,
,1 1 1 0 1 0 1 1 1 1,2,categoryB,j,genfile1.csv,0,,,,,,,,,0,1,1,0,0,37,37,48,,,,,,,,,,,,,,,,,,,,,,,,j,1,0.3195345827843994,,,,,,,,,,,,,,,,,,101,001,2021_Sep_15_1145,joplin1,2021.2.3,60.13046826144607,
,0 1 0 0 0 0 0 0 0 0,9,categoryA,f,genfile1.csv,0,,,,,,,,,0,1,1,0,0,38,38,16,,,,,,,,,,,,,,,,,,,,,,,,j,0,0.16735779214650393,,,,,,,,,,,,,,,,,,101,001,2021_Sep_15_1145,joplin1,2021.2.3,60.13046826144607,
,1 1 0 1 1 1 1 0 0 1,3,categoryB,j,genfile1.csv,0,,,,,,,,,0,1,1,0,0,39,39,43,,,,,,,,,,,,,,,,,,,,,,,,j,1,0.6055748329963535,,,,,,,,,,,,,,,,,,101,001,2021_Sep_15_1145,joplin1,2021.2.3,60.13046826144607,
,1 1 1 1 1 1 1 1 1 1,0,categoryB,j,genfile1.csv,0,,,,,,,,,0,1,1,0,0,40,40,1,,,,,,,,,,,,,,,,,,,,,,,,j,1,0.22659100010059774,,,,,,,,,,,,,,,,,,101,001,2021_Sep_15_1145,joplin1,2021.2.3,60.13046826144607,
,1 1 1 0 0 0 0 1 1 1,4,categoryB,j,genfile1.csv,1,,,,,,,,,0,1,1,0,0,41,41,12,,,,,,,,,,,,,,,,,,,,,,,,j,1,0.255398791981861,,,,,,,,,,,,,,,,,,101,001,2021_Sep_15_1145,joplin1,2021.2.3,60.13046826144607,
,1 1 0 1 1 1 1 0 1 1,2,categoryB,j,genfile1.csv,1,,,,,,,,,0,1,1,0,0,42,42,14,,,,,,,,,,,,,,,,,,,,,,,,j,1,0.29808187508024275,,,,,,,,,,,,,,,,,,101,001,2021_Sep_15_1145,joplin1,2021.2.3,60.13046826144607,
,0 1 1 1 1 1 0 1 1 0,3,categoryB,j,genfile1.csv,0,,,,,,,,,0,1,1,0,0,43,43,41,,,,,,,,,,,,,,,,,,,,,,,,j,1,0.23423516610637307,,,,,,,,,,,,,,,,,,101,001,2021_Sep_15_1145,joplin1,2021.2.3,60.13046826144607,
,1 1 1 1 1 1 1 1 0 1,1,categoryB,j,genfile1.csv,0,,,,,,,,,0,1,1,0,0,44,44,53,,,,,,,,,,,,,,,,,,,,,,,,j,1,0.29313004203140736,,,,,,,,,,,,,,,,,,101,001,2021_Sep_15_1145,joplin1,2021.2.3,60.13046826144607,
,0 0 0 0 0 0 0 0 0 1,9,categoryA,f,genfile1.csv,0,,,,,,,,,0,1,1,0,0,45,45,18,,,,,,,,,,,,,,,,,,,,,,,,f,1,0.4138480839319527,,,,,,,,,,,,,,,,,,101,001,2021_Sep_15_1145,joplin1,2021.2.3,60.13046826144607,
,1 0 0 0 1 0 1 0 1 0,6,categoryA,f,genfile1.csv,0,,,,,,,,,0,1,1,0,0,46,46,31,,,,,,,,,,,,,,,,,,,,,,,,f,1,0.4652849161066115,,,,,,,,,,,,,,,,,,101,001,2021_Sep_15_1145,joplin1,2021.2.3,60.13046826144607,
,0 0 0 0 1 0 0 1 1 0,7,categoryA,f,genfile1.csv,0,,,,,,,,,0,1,1,0,0,47,47,30,,,,,,,,,,,,,,,,,,,,,,,,f,1,0.32296208408661187,,,,,,,,,,,,,,,,,,101,001,2021_Sep_15_1145,joplin1,2021.2.3,60.13046826144607,
,1 0 1 1 1 1 0 1 1 1,2,categoryB,j,genfile1.csv,0,,,,,,,,,0,1,1,0,0,48,48,50,,,,,,,,,,,,,,,,,,,,,,,,j,1,0.24998416705057025,,,,,,,,,,,,,,,,,,101,001,2021_Sep_15_1145,joplin1,2021.2.3,60.13046826144607,
,0 0 0 1 0 0 1 0 0 0,8,categoryA,f,genfile1.csv,1,,,,,,,,,0,1,1,0,0,49,49,6,,,,,,,,,,,,,,,,,,,,,,,,j,0,0.2704109998885542,,,,,,,,,,,,,,,,,,101,001,2021_Sep_15_1145,joplin1,2021.2.3,60.13046826144607,
,1 1 1 0 1 1 0 1 1 0,3,categoryB,j,genfile1.csv,0,,,,,,,,,0,1,1,0,0,50,50,44,,,,,,,,,,,,,,,,,,,,,,,,f,0,0.35960187506861985,,,,,,,,,,,,,,,,,,101,001,2021_Sep_15_1145,joplin1,2021.2.3,60.13046826144607,
,1 0 0 0 0 0 0 0 0 1,8,categoryA,f,genfile1.csv,1,,,,,,,,,0,1,1,0,0,51,51,2,,,,,,,,,,,,,,,,,,,,,,,,f,1,0.45558899990282953,,,,,,,,,,,,,,,,,,101,001,2021_Sep_15_1145,joplin1,2021.2.3,60.13046826144607,
,0 1 1 1 1 1 1 1 0 1,2,categoryB,j,genfile1.csv,0,,,,,,,,,0,1,1,0,0,52,52,49,,,,,,,,,,,,,,,,,,,,,,,,j,1,0.4572373339906335,,,,,,,,,,,,,,,,,,101,001,2021_Sep_15_1145,joplin1,2021.2.3,60.13046826144607,
,0 0 0 0 1 1 0 1 0 0,7,categoryA,f,genfile1.csv,0,,,,,,,,,0,1,1,0,0,53,53,26,,,,,,,,,,,,,,,,,,,,,,,,j,0,0.3868022500537336,,,,,,,,,,,,,,,,,,101,001,2021_Sep_15_1145,joplin1,2021.2.3,60.13046826144607,
,0 1 0 1 0 1 0 1 0 0,6,categoryA,f,genfile1.csv,0,,,,,,,,,0,1,1,0,0,54,54,35,,,,,,,,,,,,,,,,,,,,,,,,f,1,0.17468674993142486,,,,,,,,,,,,,,,,,,101,001,2021_Sep_15_1145,joplin1,2021.2.3,60.13046826144607,
,0 1 1 0 0 0 0 0 1 0,7,categoryA,f,genfile1.csv,0,,,,,,,,,0,1,1,0,0,55,55,29,,,,,,,,,,,,,,,,,,,,,,,,f,1,0.3484005418140441,,,,,,,,,,,,,,,,,,101,001,2021_Sep_15_1145,joplin1,2021.2.3,60.13046826144607,
,,,,,genfile1.csv,,,,,,,,,,0,1,1,0,,,,,,,,,,,,,,,,,,space,4.596693916013464,,,,,,,,,,,,,,,,,,,,,,,,,,,,,101,001,2021_Sep_15_1145,joplin1,2021.2.3,60.13046826144607,
,,,,,,,,,,,,,,,,,,,,,,,,,,,,,,,,,,,,,,,,,,,,,,,,,None,,,,,,,,,,,,,,,,,101,001,2021_Sep_15_1145,joplin1,2021.2.3,60.13046826144607,
,,,,,,,,,,,,,,,,,,,,,,,,,,,,,,,,,,,,,,,,,,,,,,,,,,None,,,,,,,,,,,,,,,,101,001,2021_Sep_15_1145,joplin1,2021.2.3,60.13046826144607,
,,,,,,,,,,,,,,,,,,,,,,,,,,,,,,,,,,,,,,,,,,,,,,,,,,,0.7,radio,0.3,Are you Hispanic/Latino?,0,None,None,None,None,,,,,,,101,001,2021_Sep_15_1145,joplin1,2021.2.3,60.13046826144607,
,,,,,,,,,,,,,,,,,,,,,,,,,,,,,,,,,,,,,,,,,,,,,,,,,,,0.7,radio,0.3,Are you an American Indian or Alaska Native?,1,None,None,None,None,,,,,,,101,001,2021_Sep_15_1145,joplin1,2021.2.3,60.13046826144607,
,,,,,,,,,,,,,,,,,,,,,,,,,,,,,,,,,,,,,,,,,,,,,,,,,,,0.7,radio,0.3,Are you Asian?,2,None,None,None,None,,,,,,,101,001,2021_Sep_15_1145,joplin1,2021.2.3,60.13046826144607,
,,,,,,,,,,,,,,,,,,,,,,,,,,,,,,,,,,,,,,,,,,,,,,,,,,,0.7,radio,0.3,Are you Black or African American?,3,None,None,None,None,,,,,,,101,001,2021_Sep_15_1145,joplin1,2021.2.3,60.13046826144607,
,,,,,,,,,,,,,,,,,,,,,,,,,,,,,,,,,,,,,,,,,,,,,,,,,,,0.7,radio,0.3,Are you a Native Hawaiian or other Pacific Islander?,4,None,None,None,None,,,,,,,101,001,2021_Sep_15_1145,joplin1,2021.2.3,60.13046826144607,
,,,,,,,,,,,,,,,,,,,,,,,,,,,,,,,,,,,,,,,,,,,,,,,,,,,0.7,radio,0.3,Are you White?,5,None,None,None,None,,,,,,,101,001,2021_Sep_15_1145,joplin1,2021.2.3,60.13046826144607,
,,,,,,,,,,,,,,,,,,,,,,,,,,,,,,,,,,,,,,,,,,,,,,,,,,,0.85,radio,0.3,"Do you have any history of neurological issues such as stroke, head injury or a neurodegenerative disorder?",6,None,None,None,None,,,,,,,101,001,2021_Sep_15_1145,joplin1,2021.2.3,60.13046826144607,
,,,,,,,,,,,,,,,,,,,,,,,,,,,,,,,,,,,,,,,,,,,,,,,,,,,,,,,,,,,,None,,,,,,101,001,2021_Sep_15_1145,joplin1,2021.2.3,60.13046826144607,
,,,,,,,,,,,,,,,,,,,,,,,,,,,,,,,,,,,,,,,,,,,,,,,,,,,,,,,,,,,,,None,,,,,101,001,2021_Sep_15_1145,joplin1,2021.2.3,60.13046826144607,
,,,,,,,,,,,,,,,,,,,,,,,,,,,,,,,,,,,,,,,,,,,,,,,,,,,,,,,,,,,,,,,,None,,101,001,2021_Sep_15_1145,joplin1,2021.2.3,60.13046826144607,
,,,,,,,,,,,,,,,,,,,,,,,,,,,,,,,,,,,,,,,,,,,,,,,,,,,,,,,,,,,,,,,,,,,,,,,,
