train_set,stim_id,sums_feat,category,correct_key,gen_file,train_item,train_runs.thisRepN,train_runs.thisTrialN,train_runs.thisN,train_runs.thisIndex,train_trials.thisRepN,train_trials.thisTrialN,train_trials.thisN,train_trials.thisIndex,test_runs.thisRepN,test_runs.thisTrialN,test_runs.thisN,test_runs.thisIndex,test_trials.thisRepN,test_trials.thisTrialN,test_trials.thisN,test_trials.thisIndex,welcome_key.keys,welcome_key.rt,welcome_key.started,welcome_key.stopped,train_inst1_key.keys,train_inst1_key.rt,train_inst2_key.keys,train_inst2_key.rt,train_begin_key.keys,train_begin_key.rt,train_key.keys,train_key.corr,train_key.rt,break_key.keys,break_key.rt,key_resp.keys,key_resp.rt,test_inst1_key.keys,test_inst1_key.rt,test_inst2_key.keys,test_inst2_key.rt,test_begin_key.keys,test_begin_key.rt,test_key.keys,test_key.corr,test_key.rt,test_end_key.keys,demo_inst1_key.keys,form.questionWidth,form.type,form.respWidth,form.itemText,form.index,form.font,form.markerColor,form.response,form.rt,form_key.keys,demo_inst2_key.keys,gender_string,age_string,demo4_key.keys,typedWord,participant,session,date,expName,psychopyVersion,frameRate,
,,,,,,,,,,,,,,,,,,,,,,,space,13.845198417082429,10.828840041067451,None,,,,,,,,,,,,,,,,,,,,,,,,,,,,,,,,,,,,,,,,102,001,2021_Sep_20_1516,joplin1,2021.2.3,59.6183233085759,
,,,,,,,,,,,,,,,,,,,,,,,,,,,f,12.429894916946068,,,,,,,,,,,,,,,,,,,,,,,,,,,,,,,,,,,,,,102,001,2021_Sep_20_1516,joplin1,2021.2.3,59.6183233085759,
,,,,,,,,,,,,,,,,,,,,,,,,,,,,,space,6.278480249922723,,,,,,,,,,,,,,,,,,,,,,,,,,,,,,,,,,,,102,001,2021_Sep_20_1516,joplin1,2021.2.3,59.6183233085759,
,,,,,,,,,,,,,,,,,,,,,,,,,,,,,,,space,1.2699524580966681,,,,,,,,,,,,,,,,,,,,,,,,,,,,,,,,,,102,001,2021_Sep_20_1516,joplin1,2021.2.3,59.6183233085759,
_train_cond.csv,1 1 0 1 0 0 1 0 1 1,4,categoryB,j,,,0,0,0,1,0,0,0,9,,,,,,,,,,,,,,,,,,,f,0,1.2104170829989016,,,,,,,,,,,,,,,,,,,,,,,,,,,,,,,102,001,2021_Sep_20_1516,joplin1,2021.2.3,59.6183233085759,
_train_cond.csv,0 0 1 1 1 1 1 1 0 0,4,categoryB,j,,,0,0,0,1,0,1,1,13,,,,,,,,,,,,,,,,,,,j,1,0.8026787089183927,,,,,,,,,,,,,,,,,,,,,,,,,,,,,,,102,001,2021_Sep_20_1516,joplin1,2021.2.3,59.6183233085759,
_train_cond.csv,0 1 1 1 1 1 1 1 1 0,2,categoryB,j,,,0,0,0,1,0,2,2,7,,,,,,,,,,,,,,,,,,,j,1,0.1756250828038901,,,,,,,,,,,,,,,,,,,,,,,,,,,,,,,102,001,2021_Sep_20_1516,joplin1,2021.2.3,59.6183233085759,
_train_cond.csv,0 0 0 1 0 0 1 0 0 0,8,categoryA,f,,,0,0,0,1,0,3,3,4,,,,,,,,,,,,,,,,,,,j,0,0.8126832919660956,,,,,,,,,,,,,,,,,,,,,,,,,,,,,,,102,001,2021_Sep_20_1516,joplin1,2021.2.3,59.6183233085759,
_train_cond.csv,1 0 0 0 0 0 0 0 0 1,8,categoryA,f,,,0,0,0,1,0,4,4,0,,,,,,,,,,,,,,,,,,,f,1,0.37445737491361797,,,,,,,,,,,,,,,,,,,,,,,,,,,,,,,102,001,2021_Sep_20_1516,joplin1,2021.2.3,59.6183233085759,
_train_cond.csv,1 0 1 1 1 1 1 1 0 1,2,categoryB,j,,,0,0,0,1,0,5,5,8,,,,,,,,,,,,,,,,,,,j,1,0.32916862494312227,,,,,,,,,,,,,,,,,,,,,,,,,,,,,,,102,001,2021_Sep_20_1516,joplin1,2021.2.3,59.6183233085759,
_train_cond.csv,1 1 0 0 0 0 0 0 1 1,6,categoryA,f,,,0,0,0,1,0,6,6,6,,,,,,,,,,,,,,,,,,,f,1,0.3987710829824209,,,,,,,,,,,,,,,,,,,,,,,,,,,,,,,102,001,2021_Sep_20_1516,joplin1,2021.2.3,59.6183233085759,
_train_cond.csv,1 1 0 1 1 1 1 0 1 1,2,categoryB,j,,,0,0,0,1,0,7,7,12,,,,,,,,,,,,,,,,,,,f,0,0.37881308305077255,,,,,,,,,,,,,,,,,,,,,,,,,,,,,,,102,001,2021_Sep_20_1516,joplin1,2021.2.3,59.6183233085759,
_train_cond.csv,0 0 0 1 1 1 1 0 0 0,6,categoryA,f,,,0,0,0,1,0,8,8,3,,,,,,,,,,,,,,,,,,,j,0,0.3750703751575202,,,,,,,,,,,,,,,,,,,,,,,,,,,,,,,102,001,2021_Sep_20_1516,joplin1,2021.2.3,59.6183233085759,
_train_cond.csv,0 0 1 0 1 1 0 1 0 0,6,categoryA,f,,,0,0,0,1,0,9,9,2,,,,,,,,,,,,,,,,,,,j,0,0.5544725828804076,,,,,,,,,,,,,,,,,,,,,,,,,,,,,,,102,001,2021_Sep_20_1516,joplin1,2021.2.3,59.6183233085759,
_train_cond.csv,0 1 0 0 0 0 0 0 1 0,8,categoryA,f,,,0,0,0,1,0,10,10,1,,,,,,,,,,,,,,,,,,,j,0,0.36812983313575387,,,,,,,,,,,,,,,,,,,,,,,,,,,,,,,102,001,2021_Sep_20_1516,joplin1,2021.2.3,59.6183233085759,
_train_cond.csv,0 0 1 0 0 0 0 1 0 0,8,categoryA,f,,,0,0,0,1,0,11,11,5,,,,,,,,,,,,,,,,,,,j,0,0.16478266706690192,,,,,,,,,,,,,,,,,,,,,,,,,,,,,,,102,001,2021_Sep_20_1516,joplin1,2021.2.3,59.6183233085759,
_train_cond.csv,1 1 1 0 1 1 0 1 1 1,2,categoryB,j,,,0,0,0,1,0,12,12,11,,,,,,,,,,,,,,,,,,,f,0,0.15477958298288286,,,,,,,,,,,,,,,,,,,,,,,,,,,,,,,102,001,2021_Sep_20_1516,joplin1,2021.2.3,59.6183233085759,
_train_cond.csv,1 1 1 0 0 0 0 1 1 1,4,categoryB,j,,,0,0,0,1,0,13,13,10,,,,,,,,,,,,,,,,,,,j,1,0.32017633388750255,,,,,,,,,,,,,,,,,,,,,,,,,,,,,,,102,001,2021_Sep_20_1516,joplin1,2021.2.3,59.6183233085759,
_train_cond.csv,0 0 1 0 1 1 0 1 0 0,6,categoryA,f,,,0,0,0,1,1,0,14,2,,,,,,,,,,,,,,,,,,,j,0,0.2966441251337528,,,,,,,,,,,,,,,,,,,,,,,,,,,,,,,102,001,2021_Sep_20_1516,joplin1,2021.2.3,59.6183233085759,
_train_cond.csv,1 1 0 1 0 0 1 0 1 1,4,categoryB,j,,,0,0,0,1,1,1,15,9,,,,,,,,,,,,,,,,,,,f,0,0.3465111660771072,,,,,,,,,,,,,,,,,,,,,,,,,,,,,,,102,001,2021_Sep_20_1516,joplin1,2021.2.3,59.6183233085759,
_train_cond.csv,0 0 1 0 0 0 0 1 0 0,8,categoryA,f,,,0,0,0,1,1,2,16,5,,,,,,,,,,,,,,,,,,,f,1,0.362508166115731,,,,,,,,,,,,,,,,,,,,,,,,,,,,,,,102,001,2021_Sep_20_1516,joplin1,2021.2.3,59.6183233085759,
_train_cond.csv,0 0 0 1 1 1 1 0 0 0,6,categoryA,f,,,0,0,0,1,1,3,17,3,,,,,,,,,,,,,,,,,,,f,1,0.13718395796604455,,,,,,,,,,,,,,,,,,,,,,,,,,,,,,,102,001,2021_Sep_20_1516,joplin1,2021.2.3,59.6183233085759,
_train_cond.csv,0 1 0 0 0 0 0 0 1 0,8,categoryA,f,,,0,0,0,1,1,4,18,1,,,,,,,,,,,,,,,,,,,j,0,0.4091697079129517,,,,,,,,,,,,,,,,,,,,,,,,,,,,,,,102,001,2021_Sep_20_1516,joplin1,2021.2.3,59.6183233085759,
_train_cond.csv,1 0 1 1 1 1 1 1 0 1,2,categoryB,j,,,0,0,0,1,1,5,19,8,,,,,,,,,,,,,,,,,,,f,0,0.31936191697604954,,,,,,,,,,,,,,,,,,,,,,,,,,,,,,,102,001,2021_Sep_20_1516,joplin1,2021.2.3,59.6183233085759,
_train_cond.csv,0 0 0 1 0 0 1 0 0 0,8,categoryA,f,,,0,0,0,1,1,6,20,4,,,,,,,,,,,,,,,,,,,j,0,0.27991320798173547,,,,,,,,,,,,,,,,,,,,,,,,,,,,,,,102,001,2021_Sep_20_1516,joplin1,2021.2.3,59.6183233085759,
_train_cond.csv,1 0 0 0 0 0 0 0 0 1,8,categoryA,f,,,0,0,0,1,1,7,21,0,,,,,,,,,,,,,,,,,,,f,1,0.4719986249692738,,,,,,,,,,,,,,,,,,,,,,,,,,,,,,,102,001,2021_Sep_20_1516,joplin1,2021.2.3,59.6183233085759,
_train_cond.csv,0 0 1 1 1 1 1 1 0 0,4,categoryB,j,,,0,0,0,1,1,8,22,13,,,,,,,,,,,,,,,,,,,j,1,0.5541183748282492,,,,,,,,,,,,,,,,,,,,,,,,,,,,,,,102,001,2021_Sep_20_1516,joplin1,2021.2.3,59.6183233085759,
_train_cond.csv,1 1 1 0 0 0 0 1 1 1,4,categoryB,j,,,0,0,0,1,1,9,23,10,,,,,,,,,,,,,,,,,,,j,1,0.47231204085983336,,,,,,,,,,,,,,,,,,,,,,,,,,,,,,,102,001,2021_Sep_20_1516,joplin1,2021.2.3,59.6183233085759,
_train_cond.csv,1 1 0 1 1 1 1 0 1 1,2,categoryB,j,,,0,0,0,1,1,10,24,12,,,,,,,,,,,,,,,,,,,j,1,0.3381996669340879,,,,,,,,,,,,,,,,,,,,,,,,,,,,,,,102,001,2021_Sep_20_1516,joplin1,2021.2.3,59.6183233085759,
_train_cond.csv,0 1 1 1 1 1 1 1 1 0,2,categoryB,j,,,0,0,0,1,1,11,25,7,,,,,,,,,,,,,,,,,,,f,0,0.3235608341637999,,,,,,,,,,,,,,,,,,,,,,,,,,,,,,,102,001,2021_Sep_20_1516,joplin1,2021.2.3,59.6183233085759,
_train_cond.csv,1 1 0 0 0 0 0 0 1 1,6,categoryA,f,,,0,0,0,1,1,12,26,6,,,,,,,,,,,,,,,,,,,j,0,0.16431975015439093,,,,,,,,,,,,,,,,,,,,,,,,,,,,,,,102,001,2021_Sep_20_1516,joplin1,2021.2.3,59.6183233085759,
_train_cond.csv,1 1 1 0 1 1 0 1 1 1,2,categoryB,j,,,0,0,0,1,1,13,27,11,,,,,,,,,,,,,,,,,,,f,0,0.6118816249072552,,,,,,,,,,,,,,,,,,,,,,,,,,,,,,,102,001,2021_Sep_20_1516,joplin1,2021.2.3,59.6183233085759,
_train_cond.csv,1 0 1 1 1 1 1 1 0 1,2,categoryB,j,,,0,0,0,1,2,0,28,8,,,,,,,,,,,,,,,,,,,j,1,0.5215196250937879,,,,,,,,,,,,,,,,,,,,,,,,,,,,,,,102,001,2021_Sep_20_1516,joplin1,2021.2.3,59.6183233085759,
_train_cond.csv,0 0 1 1 1 1 1 1 0 0,4,categoryB,j,,,0,0,0,1,2,1,29,13,,,,,,,,,,,,,,,,,,,f,0,0.38510266691446304,,,,,,,,,,,,,,,,,,,,,,,,,,,,,,,102,001,2021_Sep_20_1516,joplin1,2021.2.3,59.6183233085759,
_train_cond.csv,0 0 1 0 1 1 0 1 0 0,6,categoryA,f,,,0,0,0,1,2,2,30,2,,,,,,,,,,,,,,,,,,,j,0,0.46230949996970594,,,,,,,,,,,,,,,,,,,,,,,,,,,,,,,102,001,2021_Sep_20_1516,joplin1,2021.2.3,59.6183233085759,
_train_cond.csv,0 1 0 0 0 0 0 0 1 0,8,categoryA,f,,,0,0,0,1,2,3,31,1,,,,,,,,,,,,,,,,,,,j,0,0.36681337491609156,,,,,,,,,,,,,,,,,,,,,,,,,,,,,,,102,001,2021_Sep_20_1516,joplin1,2021.2.3,59.6183233085759,
_train_cond.csv,1 1 1 0 1 1 0 1 1 1,2,categoryB,j,,,0,0,0,1,2,4,32,11,,,,,,,,,,,,,,,,,,,f,0,0.07149716699495912,,,,,,,,,,,,,,,,,,,,,,,,,,,,,,,102,001,2021_Sep_20_1516,joplin1,2021.2.3,59.6183233085759,
_train_cond.csv,0 0 0 1 1 1 1 0 0 0,6,categoryA,f,,,0,0,0,1,2,5,33,3,,,,,,,,,,,,,,,,,,,j,0,0.4169801250100136,,,,,,,,,,,,,,,,,,,,,,,,,,,,,,,102,001,2021_Sep_20_1516,joplin1,2021.2.3,59.6183233085759,
_train_cond.csv,1 1 1 0 0 0 0 1 1 1,4,categoryB,j,,,0,0,0,1,2,6,34,10,,,,,,,,,,,,,,,,,,,None,0,,,,,,,,,,,,,,,,,,,,,,,,,,,,,,,,102,001,2021_Sep_20_1516,joplin1,2021.2.3,59.6183233085759,
_train_cond.csv,1 1 0 0 0 0 0 0 1 1,6,categoryA,f,,,0,0,0,1,2,7,35,6,,,,,,,,,,,,,,,,,,,f,1,0.34084224980324507,,,,,,,,,,,,,,,,,,,,,,,,,,,,,,,102,001,2021_Sep_20_1516,joplin1,2021.2.3,59.6183233085759,
_train_cond.csv,1 0 0 0 0 0 0 0 0 1,8,categoryA,f,,,0,0,0,1,2,8,36,0,,,,,,,,,,,,,,,,,,,f,1,0.4517774579580873,,,,,,,,,,,,,,,,,,,,,,,,,,,,,,,102,001,2021_Sep_20_1516,joplin1,2021.2.3,59.6183233085759,
_train_cond.csv,0 1 1 1 1 1 1 1 1 0,2,categoryB,j,,,0,0,0,1,2,9,37,7,,,,,,,,,,,,,,,,,,,j,1,0.2783365841023624,,,,,,,,,,,,,,,,,,,,,,,,,,,,,,,102,001,2021_Sep_20_1516,joplin1,2021.2.3,59.6183233085759,
_train_cond.csv,0 0 0 1 0 0 1 0 0 0,8,categoryA,f,,,0,0,0,1,2,10,38,4,,,,,,,,,,,,,,,,,,,j,0,0.3213320830836892,,,,,,,,,,,,,,,,,,,,,,,,,,,,,,,102,001,2021_Sep_20_1516,joplin1,2021.2.3,59.6183233085759,
_train_cond.csv,1 1 0 1 0 0 1 0 1 1,4,categoryB,j,,,0,0,0,1,2,11,39,9,,,,,,,,,,,,,,,,,,,f,0,0.31316245812922716,,,,,,,,,,,,,,,,,,,,,,,,,,,,,,,102,001,2021_Sep_20_1516,joplin1,2021.2.3,59.6183233085759,
_train_cond.csv,1 1 0 1 1 1 1 0 1 1,2,categoryB,j,,,0,0,0,1,2,12,40,12,,,,,,,,,,,,,,,,,,,j,1,0.29872687510214746,,,,,,,,,,,,,,,,,,,,,,,,,,,,,,,102,001,2021_Sep_20_1516,joplin1,2021.2.3,59.6183233085759,
_train_cond.csv,0 0 1 0 0 0 0 1 0 0,8,categoryA,f,,,0,0,0,1,2,13,41,5,,,,,,,,,,,,,,,,,,,j,0,0.30766620789654553,,,,,,,,,,,,,,,,,,,,,,,,,,,,,,,102,001,2021_Sep_20_1516,joplin1,2021.2.3,59.6183233085759,
_train_cond.csv,,,,,,,0,0,0,1,,,,,,,,,,,,,,,,,,,,,,,,,,space,4.941694583976641,,,,,,,,,,,,,,,,,,,,,,,,,,,,,102,001,2021_Sep_20_1516,joplin1,2021.2.3,59.6183233085759,
_train_cond.csv,0 1 0 0 0 0 0 0 1 0,8,categoryA,f,,,0,1,1,2,0,0,0,1,,,,,,,,,,,,,,,,,,,j,0,1.563215292058885,,,,,,,,,,,,,,,,,,,,,,,,,,,,,,,102,001,2021_Sep_20_1516,joplin1,2021.2.3,59.6183233085759,
_train_cond.csv,1 1 0 1 0 0 1 0 1 1,4,categoryB,j,,,0,1,1,2,0,1,1,9,,,,,,,,,,,,,,,,,,,f,0,0.4762152920011431,,,,,,,,,,,,,,,,,,,,,,,,,,,,,,,102,001,2021_Sep_20_1516,joplin1,2021.2.3,59.6183233085759,
_train_cond.csv,0 0 1 0 0 0 0 1 0 0,8,categoryA,f,,,0,1,1,2,0,2,2,5,,,,,,,,,,,,,,,,,,,j,0,0.006892750039696693,,,,,,,,,,,,,,,,,,,,,,,,,,,,,,,102,001,2021_Sep_20_1516,joplin1,2021.2.3,59.6183233085759,
_train_cond.csv,1 0 1 1 1 1 1 1 0 1,2,categoryB,j,,,0,1,1,2,0,3,3,8,,,,,,,,,,,,,,,,,,,j,1,0.3394973750691861,,,,,,,,,,,,,,,,,,,,,,,,,,,,,,,102,001,2021_Sep_20_1516,joplin1,2021.2.3,59.6183233085759,
_train_cond.csv,0 0 1 0 1 1 0 1 0 0,6,categoryA,f,,,0,1,1,2,0,4,4,2,,,,,,,,,,,,,,,,,,,f,1,0.33844337495975196,,,,,,,,,,,,,,,,,,,,,,,,,,,,,,,102,001,2021_Sep_20_1516,joplin1,2021.2.3,59.6183233085759,
_train_cond.csv,1 1 1 0 0 0 0 1 1 1,4,categoryB,j,,,0,1,1,2,0,5,5,10,,,,,,,,,,,,,,,,,,,j,1,0.30621008295565844,,,,,,,,,,,,,,,,,,,,,,,,,,,,,,,102,001,2021_Sep_20_1516,joplin1,2021.2.3,59.6183233085759,
_train_cond.csv,1 0 0 0 0 0 0 0 0 1,8,categoryA,f,,,0,1,1,2,0,6,6,0,,,,,,,,,,,,,,,,,,,f,1,0.3149611670523882,,,,,,,,,,,,,,,,,,,,,,,,,,,,,,,102,001,2021_Sep_20_1516,joplin1,2021.2.3,59.6183233085759,
_train_cond.csv,0 0 0 1 1 1 1 0 0 0,6,categoryA,f,,,0,1,1,2,0,7,7,3,,,,,,,,,,,,,,,,,,,j,0,0.2916910001076758,,,,,,,,,,,,,,,,,,,,,,,,,,,,,,,102,001,2021_Sep_20_1516,joplin1,2021.2.3,59.6183233085759,
_train_cond.csv,1 1 1 0 1 1 0 1 1 1,2,categoryB,j,,,0,1,1,2,0,8,8,11,,,,,,,,,,,,,,,,,,,j,1,0.2855169998947531,,,,,,,,,,,,,,,,,,,,,,,,,,,,,,,102,001,2021_Sep_20_1516,joplin1,2021.2.3,59.6183233085759,
_train_cond.csv,0 1 1 1 1 1 1 1 1 0,2,categoryB,j,,,0,1,1,2,0,9,9,7,,,,,,,,,,,,,,,,,,,j,1,0.37604270805604756,,,,,,,,,,,,,,,,,,,,,,,,,,,,,,,102,001,2021_Sep_20_1516,joplin1,2021.2.3,59.6183233085759,
_train_cond.csv,1 1 0 0 0 0 0 0 1 1,6,categoryA,f,,,0,1,1,2,0,10,10,6,,,,,,,,,,,,,,,,,,,f,1,0.35892770788632333,,,,,,,,,,,,,,,,,,,,,,,,,,,,,,,102,001,2021_Sep_20_1516,joplin1,2021.2.3,59.6183233085759,
_train_cond.csv,0 0 1 1 1 1 1 1 0 0,4,categoryB,j,,,0,1,1,2,0,11,11,13,,,,,,,,,,,,,,,,,,,j,1,0.3491364158689976,,,,,,,,,,,,,,,,,,,,,,,,,,,,,,,102,001,2021_Sep_20_1516,joplin1,2021.2.3,59.6183233085759,
_train_cond.csv,1 1 0 1 1 1 1 0 1 1,2,categoryB,j,,,0,1,1,2,0,12,12,12,,,,,,,,,,,,,,,,,,,f,0,0.2932635420002043,,,,,,,,,,,,,,,,,,,,,,,,,,,,,,,102,001,2021_Sep_20_1516,joplin1,2021.2.3,59.6183233085759,
_train_cond.csv,0 0 0 1 0 0 1 0 0 0,8,categoryA,f,,,0,1,1,2,0,13,13,4,,,,,,,,,,,,,,,,,,,j,0,0.3913024580106139,,,,,,,,,,,,,,,,,,,,,,,,,,,,,,,102,001,2021_Sep_20_1516,joplin1,2021.2.3,59.6183233085759,
_train_cond.csv,0 1 1 1 1 1 1 1 1 0,2,categoryB,j,,,0,1,1,2,1,0,14,7,,,,,,,,,,,,,,,,,,,f,0,0.5502303328830749,,,,,,,,,,,,,,,,,,,,,,,,,,,,,,,102,001,2021_Sep_20_1516,joplin1,2021.2.3,59.6183233085759,
_train_cond.csv,1 1 0 1 1 1 1 0 1 1,2,categoryB,j,,,0,1,1,2,1,1,15,12,,,,,,,,,,,,,,,,,,,j,1,0.3495982917957008,,,,,,,,,,,,,,,,,,,,,,,,,,,,,,,102,001,2021_Sep_20_1516,joplin1,2021.2.3,59.6183233085759,
_train_cond.csv,1 0 1 1 1 1 1 1 0 1,2,categoryB,j,,,0,1,1,2,1,2,16,8,,,,,,,,,,,,,,,,,,,j,1,0.34019737504422665,,,,,,,,,,,,,,,,,,,,,,,,,,,,,,,102,001,2021_Sep_20_1516,joplin1,2021.2.3,59.6183233085759,
_train_cond.csv,0 0 1 0 0 0 0 1 0 0,8,categoryA,f,,,0,1,1,2,1,3,17,5,,,,,,,,,,,,,,,,,,,f,1,0.34952983306720853,,,,,,,,,,,,,,,,,,,,,,,,,,,,,,,102,001,2021_Sep_20_1516,joplin1,2021.2.3,59.6183233085759,
_train_cond.csv,0 0 0 1 0 0 1 0 0 0,8,categoryA,f,,,0,1,1,2,1,4,18,4,,,,,,,,,,,,,,,,,,,f,1,0.48599066701717675,,,,,,,,,,,,,,,,,,,,,,,,,,,,,,,102,001,2021_Sep_20_1516,joplin1,2021.2.3,59.6183233085759,
_train_cond.csv,1 1 0 0 0 0 0 0 1 1,6,categoryA,f,,,0,1,1,2,1,5,19,6,,,,,,,,,,,,,,,,,,,j,0,0.5921904579736292,,,,,,,,,,,,,,,,,,,,,,,,,,,,,,,102,001,2021_Sep_20_1516,joplin1,2021.2.3,59.6183233085759,
_train_cond.csv,1 1 1 0 1 1 0 1 1 1,2,categoryB,j,,,0,1,1,2,1,6,20,11,,,,,,,,,,,,,,,,,,,j,1,0.46974512515589595,,,,,,,,,,,,,,,,,,,,,,,,,,,,,,,102,001,2021_Sep_20_1516,joplin1,2021.2.3,59.6183233085759,
_train_cond.csv,1 1 0 1 0 0 1 0 1 1,4,categoryB,j,,,0,1,1,2,1,7,21,9,,,,,,,,,,,,,,,,,,,f,0,0.3909070841036737,,,,,,,,,,,,,,,,,,,,,,,,,,,,,,,102,001,2021_Sep_20_1516,joplin1,2021.2.3,59.6183233085759,
_train_cond.csv,1 0 0 0 0 0 0 0 0 1,8,categoryA,f,,,0,1,1,2,1,8,22,0,,,,,,,,,,,,,,,,,,,j,0,0.4610516249667853,,,,,,,,,,,,,,,,,,,,,,,,,,,,,,,102,001,2021_Sep_20_1516,joplin1,2021.2.3,59.6183233085759,
_train_cond.csv,0 0 1 0 1 1 0 1 0 0,6,categoryA,f,,,0,1,1,2,1,9,23,2,,,,,,,,,,,,,,,,,,,j,0,0.5358399171382189,,,,,,,,,,,,,,,,,,,,,,,,,,,,,,,102,001,2021_Sep_20_1516,joplin1,2021.2.3,59.6183233085759,
_train_cond.csv,0 1 0 0 0 0 0 0 1 0,8,categoryA,f,,,0,1,1,2,1,10,24,1,,,,,,,,,,,,,,,,,,,j,0,0.34464487503282726,,,,,,,,,,,,,,,,,,,,,,,,,,,,,,,102,001,2021_Sep_20_1516,joplin1,2021.2.3,59.6183233085759,
_train_cond.csv,0 0 1 1 1 1 1 1 0 0,4,categoryB,j,,,0,1,1,2,1,11,25,13,,,,,,,,,,,,,,,,,,,f,0,0.3696200828999281,,,,,,,,,,,,,,,,,,,,,,,,,,,,,,,102,001,2021_Sep_20_1516,joplin1,2021.2.3,59.6183233085759,
_train_cond.csv,1 1 1 0 0 0 0 1 1 1,4,categoryB,j,,,0,1,1,2,1,12,26,10,,,,,,,,,,,,,,,,,,,j,1,0.2631632089614868,,,,,,,,,,,,,,,,,,,,,,,,,,,,,,,102,001,2021_Sep_20_1516,joplin1,2021.2.3,59.6183233085759,
_train_cond.csv,0 0 0 1 1 1 1 0 0 0,6,categoryA,f,,,0,1,1,2,1,13,27,3,,,,,,,,,,,,,,,,,,,j,0,0.4594092909246683,,,,,,,,,,,,,,,,,,,,,,,,,,,,,,,102,001,2021_Sep_20_1516,joplin1,2021.2.3,59.6183233085759,
_train_cond.csv,1 1 0 0 0 0 0 0 1 1,6,categoryA,f,,,0,1,1,2,2,0,28,6,,,,,,,,,,,,,,,,,,,f,1,0.3893166249617934,,,,,,,,,,,,,,,,,,,,,,,,,,,,,,,102,001,2021_Sep_20_1516,joplin1,2021.2.3,59.6183233085759,
_train_cond.csv,0 1 1 1 1 1 1 1 1 0,2,categoryB,j,,,0,1,1,2,2,1,29,7,,,,,,,,,,,,,,,,,,,f,0,0.4985234159976244,,,,,,,,,,,,,,,,,,,,,,,,,,,,,,,102,001,2021_Sep_20_1516,joplin1,2021.2.3,59.6183233085759,
_train_cond.csv,1 0 0 0 0 0 0 0 0 1,8,categoryA,f,,,0,1,1,2,2,2,30,0,,,,,,,,,,,,,,,,,,,j,0,0.3712502499110997,,,,,,,,,,,,,,,,,,,,,,,,,,,,,,,102,001,2021_Sep_20_1516,joplin1,2021.2.3,59.6183233085759,
_train_cond.csv,1 1 1 0 1 1 0 1 1 1,2,categoryB,j,,,0,1,1,2,2,3,31,11,,,,,,,,,,,,,,,,,,,j,1,0.4727410830091685,,,,,,,,,,,,,,,,,,,,,,,,,,,,,,,102,001,2021_Sep_20_1516,joplin1,2021.2.3,59.6183233085759,
_train_cond.csv,0 0 0 1 0 0 1 0 0 0,8,categoryA,f,,,0,1,1,2,2,4,32,4,,,,,,,,,,,,,,,,,,,f,1,0.4362166670616716,,,,,,,,,,,,,,,,,,,,,,,,,,,,,,,102,001,2021_Sep_20_1516,joplin1,2021.2.3,59.6183233085759,
_train_cond.csv,1 1 1 0 0 0 0 1 1 1,4,categoryB,j,,,0,1,1,2,2,5,33,10,,,,,,,,,,,,,,,,,,,f,0,0.40821908391080797,,,,,,,,,,,,,,,,,,,,,,,,,,,,,,,102,001,2021_Sep_20_1516,joplin1,2021.2.3,59.6183233085759,
_train_cond.csv,0 1 0 0 0 0 0 0 1 0,8,categoryA,f,,,0,1,1,2,2,6,34,1,,,,,,,,,,,,,,,,,,,j,0,0.412214333191514,,,,,,,,,,,,,,,,,,,,,,,,,,,,,,,102,001,2021_Sep_20_1516,joplin1,2021.2.3,59.6183233085759,
_train_cond.csv,0 0 0 1 1 1 1 0 0 0,6,categoryA,f,,,0,1,1,2,2,7,35,3,,,,,,,,,,,,,,,,,,,j,0,0.24205116694793105,,,,,,,,,,,,,,,,,,,,,,,,,,,,,,,102,001,2021_Sep_20_1516,joplin1,2021.2.3,59.6183233085759,
_train_cond.csv,0 0 1 1 1 1 1 1 0 0,4,categoryB,j,,,0,1,1,2,2,8,36,13,,,,,,,,,,,,,,,,,,,f,0,0.5163503750227392,,,,,,,,,,,,,,,,,,,,,,,,,,,,,,,102,001,2021_Sep_20_1516,joplin1,2021.2.3,59.6183233085759,
_train_cond.csv,0 0 1 0 1 1 0 1 0 0,6,categoryA,f,,,0,1,1,2,2,9,37,2,,,,,,,,,,,,,,,,,,,f,1,1.684917249949649,,,,,,,,,,,,,,,,,,,,,,,,,,,,,,,102,001,2021_Sep_20_1516,joplin1,2021.2.3,59.6183233085759,
_train_cond.csv,1 0 1 1 1 1 1 1 0 1,2,categoryB,j,,,0,1,1,2,2,10,38,8,,,,,,,,,,,,,,,,,,,j,1,0.3591459169983864,,,,,,,,,,,,,,,,,,,,,,,,,,,,,,,102,001,2021_Sep_20_1516,joplin1,2021.2.3,59.6183233085759,
_train_cond.csv,1 1 0 1 1 1 1 0 1 1,2,categoryB,j,,,0,1,1,2,2,11,39,12,,,,,,,,,,,,,,,,,,,j,1,0.33363883290439844,,,,,,,,,,,,,,,,,,,,,,,,,,,,,,,102,001,2021_Sep_20_1516,joplin1,2021.2.3,59.6183233085759,
_train_cond.csv,1 1 0 1 0 0 1 0 1 1,4,categoryB,j,,,0,1,1,2,2,12,40,9,,,,,,,,,,,,,,,,,,,j,1,0.31867225002497435,,,,,,,,,,,,,,,,,,,,,,,,,,,,,,,102,001,2021_Sep_20_1516,joplin1,2021.2.3,59.6183233085759,
_train_cond.csv,0 0 1 0 0 0 0 1 0 0,8,categoryA,f,,,0,1,1,2,2,13,41,5,,,,,,,,,,,,,,,,,,,f,1,0.31811637501232326,,,,,,,,,,,,,,,,,,,,,,,,,,,,,,,102,001,2021_Sep_20_1516,joplin1,2021.2.3,59.6183233085759,
_train_cond.csv,,,,,,,0,1,1,2,,,,,,,,,,,,,,,,,,,,,,,,,,space,2.231453707907349,,,,,,,,,,,,,,,,,,,,,,,,,,,,,102,001,2021_Sep_20_1516,joplin1,2021.2.3,59.6183233085759,
_train_cond.csv,0 0 1 1 1 1 1 1 0 0,4,categoryB,j,,,0,2,2,4,0,0,0,13,,,,,,,,,,,,,,,,,,,j,1,0.5957474161405116,,,,,,,,,,,,,,,,,,,,,,,,,,,,,,,102,001,2021_Sep_20_1516,joplin1,2021.2.3,59.6183233085759,
_train_cond.csv,1 1 0 1 0 0 1 0 1 1,4,categoryB,j,,,0,2,2,4,0,1,1,9,,,,,,,,,,,,,,,,,,,f,0,0.36034370795823634,,,,,,,,,,,,,,,,,,,,,,,,,,,,,,,102,001,2021_Sep_20_1516,joplin1,2021.2.3,59.6183233085759,
_train_cond.csv,0 1 0 0 0 0 0 0 1 0,8,categoryA,f,,,0,2,2,4,0,2,2,1,,,,,,,,,,,,,,,,,,,f,1,0.6076863338239491,,,,,,,,,,,,,,,,,,,,,,,,,,,,,,,102,001,2021_Sep_20_1516,joplin1,2021.2.3,59.6183233085759,
_train_cond.csv,1 0 0 0 0 0 0 0 0 1,8,categoryA,f,,,0,2,2,4,0,3,3,0,,,,,,,,,,,,,,,,,,,j,0,0.5895204578991979,,,,,,,,,,,,,,,,,,,,,,,,,,,,,,,102,001,2021_Sep_20_1516,joplin1,2021.2.3,59.6183233085759,
_train_cond.csv,1 1 0 1 1 1 1 0 1 1,2,categoryB,j,,,0,2,2,4,0,4,4,12,,,,,,,,,,,,,,,,,,,f,0,0.6508857090957463,,,,,,,,,,,,,,,,,,,,,,,,,,,,,,,102,001,2021_Sep_20_1516,joplin1,2021.2.3,59.6183233085759,
_train_cond.csv,1 0 1 1 1 1 1 1 0 1,2,categoryB,j,,,0,2,2,4,0,5,5,8,,,,,,,,,,,,,,,,,,,f,0,0.2056683748960495,,,,,,,,,,,,,,,,,,,,,,,,,,,,,,,102,001,2021_Sep_20_1516,joplin1,2021.2.3,59.6183233085759,
_train_cond.csv,1 1 0 0 0 0 0 0 1 1,6,categoryA,f,,,0,2,2,4,0,6,6,6,,,,,,,,,,,,,,,,,,,j,0,0.3643107919488102,,,,,,,,,,,,,,,,,,,,,,,,,,,,,,,102,001,2021_Sep_20_1516,joplin1,2021.2.3,59.6183233085759,
_train_cond.csv,1 1 1 0 1 1 0 1 1 1,2,categoryB,j,,,0,2,2,4,0,7,7,11,,,,,,,,,,,,,,,,,,,f,0,0.3871338749304414,,,,,,,,,,,,,,,,,,,,,,,,,,,,,,,102,001,2021_Sep_20_1516,joplin1,2021.2.3,59.6183233085759,
_train_cond.csv,0 0 0 1 0 0 1 0 0 0,8,categoryA,f,,,0,2,2,4,0,8,8,4,,,,,,,,,,,,,,,,,,,f,1,0.5848121249582618,,,,,,,,,,,,,,,,,,,,,,,,,,,,,,,102,001,2021_Sep_20_1516,joplin1,2021.2.3,59.6183233085759,
_train_cond.csv,1 1 1 0 0 0 0 1 1 1,4,categoryB,j,,,0,2,2,4,0,9,9,10,,,,,,,,,,,,,,,,,,,j,1,0.3102149579208344,,,,,,,,,,,,,,,,,,,,,,,,,,,,,,,102,001,2021_Sep_20_1516,joplin1,2021.2.3,59.6183233085759,
_train_cond.csv,0 1 1 1 1 1 1 1 1 0,2,categoryB,j,,,0,2,2,4,0,10,10,7,,,,,,,,,,,,,,,,,,,j,1,0.6308912499807775,,,,,,,,,,,,,,,,,,,,,,,,,,,,,,,102,001,2021_Sep_20_1516,joplin1,2021.2.3,59.6183233085759,
_train_cond.csv,0 0 1 0 1 1 0 1 0 0,6,categoryA,f,,,0,2,2,4,0,11,11,2,,,,,,,,,,,,,,,,,,,f,1,0.5566203750204295,,,,,,,,,,,,,,,,,,,,,,,,,,,,,,,102,001,2021_Sep_20_1516,joplin1,2021.2.3,59.6183233085759,
_train_cond.csv,0 0 0 1 1 1 1 0 0 0,6,categoryA,f,,,0,2,2,4,0,12,12,3,,,,,,,,,,,,,,,,,,,f,1,0.5395404999144375,,,,,,,,,,,,,,,,,,,,,,,,,,,,,,,102,001,2021_Sep_20_1516,joplin1,2021.2.3,59.6183233085759,
_train_cond.csv,0 0 1 0 0 0 0 1 0 0,8,categoryA,f,,,0,2,2,4,0,13,13,5,,,,,,,,,,,,,,,,,,,j,0,0.38757295813411474,,,,,,,,,,,,,,,,,,,,,,,,,,,,,,,102,001,2021_Sep_20_1516,joplin1,2021.2.3,59.6183233085759,
_train_cond.csv,1 1 1 0 1 1 0 1 1 1,2,categoryB,j,,,0,2,2,4,1,0,14,11,,,,,,,,,,,,,,,,,,,f,0,0.37756083300337195,,,,,,,,,,,,,,,,,,,,,,,,,,,,,,,102,001,2021_Sep_20_1516,joplin1,2021.2.3,59.6183233085759,
_train_cond.csv,1 0 0 0 0 0 0 0 0 1,8,categoryA,f,,,0,2,2,4,1,1,15,0,,,,,,,,,,,,,,,,,,,j,0,0.2072235408704728,,,,,,,,,,,,,,,,,,,,,,,,,,,,,,,102,001,2021_Sep_20_1516,joplin1,2021.2.3,59.6183233085759,
_train_cond.csv,0 0 0 1 1 1 1 0 0 0,6,categoryA,f,,,0,2,2,4,1,2,16,3,,,,,,,,,,,,,,,,,,,f,1,0.517455083085224,,,,,,,,,,,,,,,,,,,,,,,,,,,,,,,102,001,2021_Sep_20_1516,joplin1,2021.2.3,59.6183233085759,
_train_cond.csv,0 1 0 0 0 0 0 0 1 0,8,categoryA,f,,,0,2,2,4,1,3,17,1,,,,,,,,,,,,,,,,,,,f,1,0.8940210419241339,,,,,,,,,,,,,,,,,,,,,,,,,,,,,,,102,001,2021_Sep_20_1516,joplin1,2021.2.3,59.6183233085759,
_train_cond.csv,1 1 0 1 0 0 1 0 1 1,4,categoryB,j,,,0,2,2,4,1,4,18,9,,,,,,,,,,,,,,,,,,,j,1,0.9441113749053329,,,,,,,,,,,,,,,,,,,,,,,,,,,,,,,102,001,2021_Sep_20_1516,joplin1,2021.2.3,59.6183233085759,
_train_cond.csv,0 0 1 1 1 1 1 1 0 0,4,categoryB,j,,,0,2,2,4,1,5,19,13,,,,,,,,,,,,,,,,,,,j,1,0.352568875066936,,,,,,,,,,,,,,,,,,,,,,,,,,,,,,,102,001,2021_Sep_20_1516,joplin1,2021.2.3,59.6183233085759,
_train_cond.csv,0 0 0 1 0 0 1 0 0 0,8,categoryA,f,,,0,2,2,4,1,6,20,4,,,,,,,,,,,,,,,,,,,j,0,0.6553505419287831,,,,,,,,,,,,,,,,,,,,,,,,,,,,,,,102,001,2021_Sep_20_1516,joplin1,2021.2.3,59.6183233085759,
_train_cond.csv,1 1 0 0 0 0 0 0 1 1,6,categoryA,f,,,0,2,2,4,1,7,21,6,,,,,,,,,,,,,,,,,,,j,0,0.8192389158066362,,,,,,,,,,,,,,,,,,,,,,,,,,,,,,,102,001,2021_Sep_20_1516,joplin1,2021.2.3,59.6183233085759,
_train_cond.csv,1 1 1 0 0 0 0 1 1 1,4,categoryB,j,,,0,2,2,4,1,8,22,10,,,,,,,,,,,,,,,,,,,j,1,0.3285700830165297,,,,,,,,,,,,,,,,,,,,,,,,,,,,,,,102,001,2021_Sep_20_1516,joplin1,2021.2.3,59.6183233085759,
_train_cond.csv,0 0 1 0 0 0 0 1 0 0,8,categoryA,f,,,0,2,2,4,1,9,23,5,,,,,,,,,,,,,,,,,,,f,1,0.8159762078430504,,,,,,,,,,,,,,,,,,,,,,,,,,,,,,,102,001,2021_Sep_20_1516,joplin1,2021.2.3,59.6183233085759,
_train_cond.csv,1 1 0 1 1 1 1 0 1 1,2,categoryB,j,,,0,2,2,4,1,10,24,12,,,,,,,,,,,,,,,,,,,f,0,0.32561637507751584,,,,,,,,,,,,,,,,,,,,,,,,,,,,,,,102,001,2021_Sep_20_1516,joplin1,2021.2.3,59.6183233085759,
_train_cond.csv,0 0 1 0 1 1 0 1 0 0,6,categoryA,f,,,0,2,2,4,1,11,25,2,,,,,,,,,,,,,,,,,,,j,0,0.622481208993122,,,,,,,,,,,,,,,,,,,,,,,,,,,,,,,102,001,2021_Sep_20_1516,joplin1,2021.2.3,59.6183233085759,
_train_cond.csv,1 0 1 1 1 1 1 1 0 1,2,categoryB,j,,,0,2,2,4,1,12,26,8,,,,,,,,,,,,,,,,,,,j,1,0.7678628750145435,,,,,,,,,,,,,,,,,,,,,,,,,,,,,,,102,001,2021_Sep_20_1516,joplin1,2021.2.3,59.6183233085759,
_train_cond.csv,0 1 1 1 1 1 1 1 1 0,2,categoryB,j,,,0,2,2,4,1,13,27,7,,,,,,,,,,,,,,,,,,,f,0,0.3751157920341939,,,,,,,,,,,,,,,,,,,,,,,,,,,,,,,102,001,2021_Sep_20_1516,joplin1,2021.2.3,59.6183233085759,
_train_cond.csv,0 0 0 1 1 1 1 0 0 0,6,categoryA,f,,,0,2,2,4,2,0,28,3,,,,,,,,,,,,,,,,,,,f,1,1.3241097079589963,,,,,,,,,,,,,,,,,,,,,,,,,,,,,,,102,001,2021_Sep_20_1516,joplin1,2021.2.3,59.6183233085759,
_train_cond.csv,0 0 1 1 1 1 1 1 0 0,4,categoryB,j,,,0,2,2,4,2,1,29,13,,,,,,,,,,,,,,,,,,,j,1,0.6536251250654459,,,,,,,,,,,,,,,,,,,,,,,,,,,,,,,102,001,2021_Sep_20_1516,joplin1,2021.2.3,59.6183233085759,
_train_cond.csv,1 1 1 0 1 1 0 1 1 1,2,categoryB,j,,,0,2,2,4,2,2,30,11,,,,,,,,,,,,,,,,,,,f,0,0.3934449169319123,,,,,,,,,,,,,,,,,,,,,,,,,,,,,,,102,001,2021_Sep_20_1516,joplin1,2021.2.3,59.6183233085759,
_train_cond.csv,1 1 0 0 0 0 0 0 1 1,6,categoryA,f,,,0,2,2,4,2,3,31,6,,,,,,,,,,,,,,,,,,,j,0,0.669776959111914,,,,,,,,,,,,,,,,,,,,,,,,,,,,,,,102,001,2021_Sep_20_1516,joplin1,2021.2.3,59.6183233085759,
_train_cond.csv,1 0 0 0 0 0 0 0 0 1,8,categoryA,f,,,0,2,2,4,2,4,32,0,,,,,,,,,,,,,,,,,,,f,1,0.46431499999016523,,,,,,,,,,,,,,,,,,,,,,,,,,,,,,,102,001,2021_Sep_20_1516,joplin1,2021.2.3,59.6183233085759,
_train_cond.csv,1 1 0 1 1 1 1 0 1 1,2,categoryB,j,,,0,2,2,4,2,5,33,12,,,,,,,,,,,,,,,,,,,j,1,0.6121208341792226,,,,,,,,,,,,,,,,,,,,,,,,,,,,,,,102,001,2021_Sep_20_1516,joplin1,2021.2.3,59.6183233085759,
_train_cond.csv,0 0 1 0 0 0 0 1 0 0,8,categoryA,f,,,0,2,2,4,2,6,34,5,,,,,,,,,,,,,,,,,,,f,1,0.4815111660864204,,,,,,,,,,,,,,,,,,,,,,,,,,,,,,,102,001,2021_Sep_20_1516,joplin1,2021.2.3,59.6183233085759,
_train_cond.csv,1 1 0 1 0 0 1 0 1 1,4,categoryB,j,,,0,2,2,4,2,7,35,9,,,,,,,,,,,,,,,,,,,j,1,0.5951785421930254,,,,,,,,,,,,,,,,,,,,,,,,,,,,,,,102,001,2021_Sep_20_1516,joplin1,2021.2.3,59.6183233085759,
_train_cond.csv,1 0 1 1 1 1 1 1 0 1,2,categoryB,j,,,0,2,2,4,2,8,36,8,,,,,,,,,,,,,,,,,,,f,0,0.448274957947433,,,,,,,,,,,,,,,,,,,,,,,,,,,,,,,102,001,2021_Sep_20_1516,joplin1,2021.2.3,59.6183233085759,
_train_cond.csv,0 0 0 1 0 0 1 0 0 0,8,categoryA,f,,,0,2,2,4,2,9,37,4,,,,,,,,,,,,,,,,,,,f,1,0.3799801249988377,,,,,,,,,,,,,,,,,,,,,,,,,,,,,,,102,001,2021_Sep_20_1516,joplin1,2021.2.3,59.6183233085759,
_train_cond.csv,0 0 1 0 1 1 0 1 0 0,6,categoryA,f,,,0,2,2,4,2,10,38,2,,,,,,,,,,,,,,,,,,,j,0,0.3384298328310251,,,,,,,,,,,,,,,,,,,,,,,,,,,,,,,102,001,2021_Sep_20_1516,joplin1,2021.2.3,59.6183233085759,
_train_cond.csv,0 1 0 0 0 0 0 0 1 0,8,categoryA,f,,,0,2,2,4,2,11,39,1,,,,,,,,,,,,,,,,,,,f,1,0.6428257091902196,,,,,,,,,,,,,,,,,,,,,,,,,,,,,,,102,001,2021_Sep_20_1516,joplin1,2021.2.3,59.6183233085759,
_train_cond.csv,0 1 1 1 1 1 1 1 1 0,2,categoryB,j,,,0,2,2,4,2,12,40,7,,,,,,,,,,,,,,,,,,,f,0,0.285935458028689,,,,,,,,,,,,,,,,,,,,,,,,,,,,,,,102,001,2021_Sep_20_1516,joplin1,2021.2.3,59.6183233085759,
_train_cond.csv,1 1 1 0 0 0 0 1 1 1,4,categoryB,j,,,0,2,2,4,2,13,41,10,,,,,,,,,,,,,,,,,,,j,1,0.5681325409095734,,,,,,,,,,,,,,,,,,,,,,,,,,,,,,,102,001,2021_Sep_20_1516,joplin1,2021.2.3,59.6183233085759,
_train_cond.csv,,,,,,,0,2,2,4,,,,,,,,,,,,,,,,,,,,,,,,,,space,2.246229999931529,,,,,,,,,,,,,,,,,,,,,,,,,,,,,102,001,2021_Sep_20_1516,joplin1,2021.2.3,59.6183233085759,
_train_cond.csv,1 0 0 0 0 0 0 0 0 1,8,categoryA,f,,,0,3,3,3,0,0,0,0,,,,,,,,,,,,,,,,,,,f,1,0.40232854103669524,,,,,,,,,,,,,,,,,,,,,,,,,,,,,,,102,001,2021_Sep_20_1516,joplin1,2021.2.3,59.6183233085759,
_train_cond.csv,1 0 1 1 1 1 1 1 0 1,2,categoryB,j,,,0,3,3,3,0,1,1,8,,,,,,,,,,,,,,,,,,,j,1,0.4388790410012007,,,,,,,,,,,,,,,,,,,,,,,,,,,,,,,102,001,2021_Sep_20_1516,joplin1,2021.2.3,59.6183233085759,
_train_cond.csv,0 0 1 0 0 0 0 1 0 0,8,categoryA,f,,,0,3,3,3,0,2,2,5,,,,,,,,,,,,,,,,,,,f,1,0.31466166698373854,,,,,,,,,,,,,,,,,,,,,,,,,,,,,,,102,001,2021_Sep_20_1516,joplin1,2021.2.3,59.6183233085759,
_train_cond.csv,0 1 1 1 1 1 1 1 1 0,2,categoryB,j,,,0,3,3,3,0,3,3,7,,,,,,,,,,,,,,,,,,,j,1,0.7552042920142412,,,,,,,,,,,,,,,,,,,,,,,,,,,,,,,102,001,2021_Sep_20_1516,joplin1,2021.2.3,59.6183233085759,
_train_cond.csv,1 1 0 1 1 1 1 0 1 1,2,categoryB,j,,,0,3,3,3,0,4,4,12,,,,,,,,,,,,,,,,,,,f,0,0.3701690000016242,,,,,,,,,,,,,,,,,,,,,,,,,,,,,,,102,001,2021_Sep_20_1516,joplin1,2021.2.3,59.6183233085759,
_train_cond.csv,0 1 0 0 0 0 0 0 1 0,8,categoryA,f,,,0,3,3,3,0,5,5,1,,,,,,,,,,,,,,,,,,,f,1,0.3607110830489546,,,,,,,,,,,,,,,,,,,,,,,,,,,,,,,102,001,2021_Sep_20_1516,joplin1,2021.2.3,59.6183233085759,
_train_cond.csv,0 0 1 0 1 1 0 1 0 0,6,categoryA,f,,,0,3,3,3,0,6,6,2,,,,,,,,,,,,,,,,,,,f,1,0.35831279098056257,,,,,,,,,,,,,,,,,,,,,,,,,,,,,,,102,001,2021_Sep_20_1516,joplin1,2021.2.3,59.6183233085759,
_train_cond.csv,0 0 1 1 1 1 1 1 0 0,4,categoryB,j,,,0,3,3,3,0,7,7,13,,,,,,,,,,,,,,,,,,,f,0,0.5742163329850882,,,,,,,,,,,,,,,,,,,,,,,,,,,,,,,102,001,2021_Sep_20_1516,joplin1,2021.2.3,59.6183233085759,
_train_cond.csv,0 0 0 1 1 1 1 0 0 0,6,categoryA,f,,,0,3,3,3,0,8,8,3,,,,,,,,,,,,,,,,,,,j,0,0.5483872918412089,,,,,,,,,,,,,,,,,,,,,,,,,,,,,,,102,001,2021_Sep_20_1516,joplin1,2021.2.3,59.6183233085759,
_train_cond.csv,0 0 0 1 0 0 1 0 0 0,8,categoryA,f,,,0,3,3,3,0,9,9,4,,,,,,,,,,,,,,,,,,,j,0,0.4911495829001069,,,,,,,,,,,,,,,,,,,,,,,,,,,,,,,102,001,2021_Sep_20_1516,joplin1,2021.2.3,59.6183233085759,
_train_cond.csv,1 1 1 0 0 0 0 1 1 1,4,categoryB,j,,,0,3,3,3,0,10,10,10,,,,,,,,,,,,,,,,,,,f,0,0.5652060001157224,,,,,,,,,,,,,,,,,,,,,,,,,,,,,,,102,001,2021_Sep_20_1516,joplin1,2021.2.3,59.6183233085759,
_train_cond.csv,1 1 0 1 0 0 1 0 1 1,4,categoryB,j,,,0,3,3,3,0,11,11,9,,,,,,,,,,,,,,,,,,,f,0,0.4376129589509219,,,,,,,,,,,,,,,,,,,,,,,,,,,,,,,102,001,2021_Sep_20_1516,joplin1,2021.2.3,59.6183233085759,
_train_cond.csv,1 1 1 0 1 1 0 1 1 1,2,categoryB,j,,,0,3,3,3,0,12,12,11,,,,,,,,,,,,,,,,,,,f,0,0.5048431670293212,,,,,,,,,,,,,,,,,,,,,,,,,,,,,,,102,001,2021_Sep_20_1516,joplin1,2021.2.3,59.6183233085759,
_train_cond.csv,1 1 0 0 0 0 0 0 1 1,6,categoryA,f,,,0,3,3,3,0,13,13,6,,,,,,,,,,,,,,,,,,,f,1,0.7800384999718517,,,,,,,,,,,,,,,,,,,,,,,,,,,,,,,102,001,2021_Sep_20_1516,joplin1,2021.2.3,59.6183233085759,
_train_cond.csv,0 0 1 0 0 0 0 1 0 0,8,categoryA,f,,,0,3,3,3,1,0,14,5,,,,,,,,,,,,,,,,,,,j,0,0.5455411660950631,,,,,,,,,,,,,,,,,,,,,,,,,,,,,,,102,001,2021_Sep_20_1516,joplin1,2021.2.3,59.6183233085759,
_train_cond.csv,1 1 0 0 0 0 0 0 1 1,6,categoryA,f,,,0,3,3,3,1,1,15,6,,,,,,,,,,,,,,,,,,,f,1,0.5528097089845687,,,,,,,,,,,,,,,,,,,,,,,,,,,,,,,102,001,2021_Sep_20_1516,joplin1,2021.2.3,59.6183233085759,
_train_cond.csv,0 1 1 1 1 1 1 1 1 0,2,categoryB,j,,,0,3,3,3,1,2,16,7,,,,,,,,,,,,,,,,,,,f,0,0.3359540419187397,,,,,,,,,,,,,,,,,,,,,,,,,,,,,,,102,001,2021_Sep_20_1516,joplin1,2021.2.3,59.6183233085759,
_train_cond.csv,0 0 1 0 1 1 0 1 0 0,6,categoryA,f,,,0,3,3,3,1,3,17,2,,,,,,,,,,,,,,,,,,,j,0,0.6160473749041557,,,,,,,,,,,,,,,,,,,,,,,,,,,,,,,102,001,2021_Sep_20_1516,joplin1,2021.2.3,59.6183233085759,
_train_cond.csv,1 1 0 1 1 1 1 0 1 1,2,categoryB,j,,,0,3,3,3,1,4,18,12,,,,,,,,,,,,,,,,,,,f,0,0.5346786249428988,,,,,,,,,,,,,,,,,,,,,,,,,,,,,,,102,001,2021_Sep_20_1516,joplin1,2021.2.3,59.6183233085759,
_train_cond.csv,1 0 1 1 1 1 1 1 0 1,2,categoryB,j,,,0,3,3,3,1,5,19,8,,,,,,,,,,,,,,,,,,,f,0,0.766346582910046,,,,,,,,,,,,,,,,,,,,,,,,,,,,,,,102,001,2021_Sep_20_1516,joplin1,2021.2.3,59.6183233085759,
_train_cond.csv,0 0 0 1 0 0 1 0 0 0,8,categoryA,f,,,0,3,3,3,1,6,20,4,,,,,,,,,,,,,,,,,,,f,1,0.7419326670933515,,,,,,,,,,,,,,,,,,,,,,,,,,,,,,,102,001,2021_Sep_20_1516,joplin1,2021.2.3,59.6183233085759,
_train_cond.csv,0 1 0 0 0 0 0 0 1 0,8,categoryA,f,,,0,3,3,3,1,7,21,1,,,,,,,,,,,,,,,,,,,j,0,1.2937249168753624,,,,,,,,,,,,,,,,,,,,,,,,,,,,,,,102,001,2021_Sep_20_1516,joplin1,2021.2.3,59.6183233085759,
_train_cond.csv,1 1 0 1 0 0 1 0 1 1,4,categoryB,j,,,0,3,3,3,1,8,22,9,,,,,,,,,,,,,,,,,,,f,0,0.6557358750142157,,,,,,,,,,,,,,,,,,,,,,,,,,,,,,,102,001,2021_Sep_20_1516,joplin1,2021.2.3,59.6183233085759,
_train_cond.csv,1 1 1 0 0 0 0 1 1 1,4,categoryB,j,,,0,3,3,3,1,9,23,10,,,,,,,,,,,,,,,,,,,j,1,0.443759165937081,,,,,,,,,,,,,,,,,,,,,,,,,,,,,,,102,001,2021_Sep_20_1516,joplin1,2021.2.3,59.6183233085759,
_train_cond.csv,1 0 0 0 0 0 0 0 0 1,8,categoryA,f,,,0,3,3,3,1,10,24,0,,,,,,,,,,,,,,,,,,,f,1,0.4702026250306517,,,,,,,,,,,,,,,,,,,,,,,,,,,,,,,102,001,2021_Sep_20_1516,joplin1,2021.2.3,59.6183233085759,
_train_cond.csv,1 1 1 0 1 1 0 1 1 1,2,categoryB,j,,,0,3,3,3,1,11,25,11,,,,,,,,,,,,,,,,,,,f,0,0.2724254580680281,,,,,,,,,,,,,,,,,,,,,,,,,,,,,,,102,001,2021_Sep_20_1516,joplin1,2021.2.3,59.6183233085759,
_train_cond.csv,0 0 0 1 1 1 1 0 0 0,6,categoryA,f,,,0,3,3,3,1,12,26,3,,,,,,,,,,,,,,,,,,,f,1,0.3874662909656763,,,,,,,,,,,,,,,,,,,,,,,,,,,,,,,102,001,2021_Sep_20_1516,joplin1,2021.2.3,59.6183233085759,
_train_cond.csv,0 0 1 1 1 1 1 1 0 0,4,categoryB,j,,,0,3,3,3,1,13,27,13,,,,,,,,,,,,,,,,,,,j,1,0.6491245420183986,,,,,,,,,,,,,,,,,,,,,,,,,,,,,,,102,001,2021_Sep_20_1516,joplin1,2021.2.3,59.6183233085759,
_train_cond.csv,1 1 0 0 0 0 0 0 1 1,6,categoryA,f,,,0,3,3,3,2,0,28,6,,,,,,,,,,,,,,,,,,,j,0,0.6364064998924732,,,,,,,,,,,,,,,,,,,,,,,,,,,,,,,102,001,2021_Sep_20_1516,joplin1,2021.2.3,59.6183233085759,
_train_cond.csv,1 1 0 1 1 1 1 0 1 1,2,categoryB,j,,,0,3,3,3,2,1,29,12,,,,,,,,,,,,,,,,,,,f,0,0.6000116248615086,,,,,,,,,,,,,,,,,,,,,,,,,,,,,,,102,001,2021_Sep_20_1516,joplin1,2021.2.3,59.6183233085759,
_train_cond.csv,1 0 0 0 0 0 0 0 0 1,8,categoryA,f,,,0,3,3,3,2,2,30,0,,,,,,,,,,,,,,,,,,,j,0,0.5820387080311775,,,,,,,,,,,,,,,,,,,,,,,,,,,,,,,102,001,2021_Sep_20_1516,joplin1,2021.2.3,59.6183233085759,
_train_cond.csv,0 1 0 0 0 0 0 0 1 0,8,categoryA,f,,,0,3,3,3,2,3,31,1,,,,,,,,,,,,,,,,,,,f,1,0.39624454104341567,,,,,,,,,,,,,,,,,,,,,,,,,,,,,,,102,001,2021_Sep_20_1516,joplin1,2021.2.3,59.6183233085759,
_train_cond.csv,0 1 1 1 1 1 1 1 1 0,2,categoryB,j,,,0,3,3,3,2,4,32,7,,,,,,,,,,,,,,,,,,,j,1,0.6495385831221938,,,,,,,,,,,,,,,,,,,,,,,,,,,,,,,102,001,2021_Sep_20_1516,joplin1,2021.2.3,59.6183233085759,
_train_cond.csv,0 0 1 1 1 1 1 1 0 0,4,categoryB,j,,,0,3,3,3,2,5,33,13,,,,,,,,,,,,,,,,,,,f,0,0.49437712505459785,,,,,,,,,,,,,,,,,,,,,,,,,,,,,,,102,001,2021_Sep_20_1516,joplin1,2021.2.3,59.6183233085759,
_train_cond.csv,1 1 0 1 0 0 1 0 1 1,4,categoryB,j,,,0,3,3,3,2,6,34,9,,,,,,,,,,,,,,,,,,,f,0,0.3190732919611037,,,,,,,,,,,,,,,,,,,,,,,,,,,,,,,102,001,2021_Sep_20_1516,joplin1,2021.2.3,59.6183233085759,
_train_cond.csv,0 0 0 1 1 1 1 0 0 0,6,categoryA,f,,,0,3,3,3,2,7,35,3,,,,,,,,,,,,,,,,,,,f,1,0.3277359171770513,,,,,,,,,,,,,,,,,,,,,,,,,,,,,,,102,001,2021_Sep_20_1516,joplin1,2021.2.3,59.6183233085759,
_train_cond.csv,1 1 1 0 1 1 0 1 1 1,2,categoryB,j,,,0,3,3,3,2,8,36,11,,,,,,,,,,,,,,,,,,,f,0,0.5682045000139624,,,,,,,,,,,,,,,,,,,,,,,,,,,,,,,102,001,2021_Sep_20_1516,joplin1,2021.2.3,59.6183233085759,
_train_cond.csv,0 0 0 1 0 0 1 0 0 0,8,categoryA,f,,,0,3,3,3,2,9,37,4,,,,,,,,,,,,,,,,,,,f,1,0.50970808416605,,,,,,,,,,,,,,,,,,,,,,,,,,,,,,,102,001,2021_Sep_20_1516,joplin1,2021.2.3,59.6183233085759,
_train_cond.csv,1 1 1 0 0 0 0 1 1 1,4,categoryB,j,,,0,3,3,3,2,10,38,10,,,,,,,,,,,,,,,,,,,j,1,0.5107742079999298,,,,,,,,,,,,,,,,,,,,,,,,,,,,,,,102,001,2021_Sep_20_1516,joplin1,2021.2.3,59.6183233085759,
_train_cond.csv,0 0 1 0 1 1 0 1 0 0,6,categoryA,f,,,0,3,3,3,2,11,39,2,,,,,,,,,,,,,,,,,,,f,1,0.8010321669280529,,,,,,,,,,,,,,,,,,,,,,,,,,,,,,,102,001,2021_Sep_20_1516,joplin1,2021.2.3,59.6183233085759,
_train_cond.csv,0 0 1 0 0 0 0 1 0 0,8,categoryA,f,,,0,3,3,3,2,12,40,5,,,,,,,,,,,,,,,,,,,j,0,2.0945575840305537,,,,,,,,,,,,,,,,,,,,,,,,,,,,,,,102,001,2021_Sep_20_1516,joplin1,2021.2.3,59.6183233085759,
_train_cond.csv,1 0 1 1 1 1 1 1 0 1,2,categoryB,j,,,0,3,3,3,2,13,41,8,,,,,,,,,,,,,,,,,,,f,0,0.8083299999125302,,,,,,,,,,,,,,,,,,,,,,,,,,,,,,,102,001,2021_Sep_20_1516,joplin1,2021.2.3,59.6183233085759,
_train_cond.csv,,,,,,,0,3,3,3,,,,,,,,,,,,,,,,,,,,,,,,,,space,3.0934988749213517,,,,,,,,,,,,,,,,,,,,,,,,,,,,,102,001,2021_Sep_20_1516,joplin1,2021.2.3,59.6183233085759,
_train_cond.csv,0 0 0 1 1 1 1 0 0 0,6,categoryA,f,,,0,4,4,7,0,0,0,3,,,,,,,,,,,,,,,,,,,j,0,1.637801791075617,,,,,,,,,,,,,,,,,,,,,,,,,,,,,,,102,001,2021_Sep_20_1516,joplin1,2021.2.3,59.6183233085759,
_train_cond.csv,1 1 0 0 0 0 0 0 1 1,6,categoryA,f,,,0,4,4,7,0,1,1,6,,,,,,,,,,,,,,,,,,,f,1,0.42520641605369747,,,,,,,,,,,,,,,,,,,,,,,,,,,,,,,102,001,2021_Sep_20_1516,joplin1,2021.2.3,59.6183233085759,
_train_cond.csv,0 0 1 0 0 0 0 1 0 0,8,categoryA,f,,,0,4,4,7,0,2,2,5,,,,,,,,,,,,,,,,,,,f,1,0.3897979171015322,,,,,,,,,,,,,,,,,,,,,,,,,,,,,,,102,001,2021_Sep_20_1516,joplin1,2021.2.3,59.6183233085759,
_train_cond.csv,1 1 0 1 1 1 1 0 1 1,2,categoryB,j,,,0,4,4,7,0,3,3,12,,,,,,,,,,,,,,,,,,,j,1,0.348061874974519,,,,,,,,,,,,,,,,,,,,,,,,,,,,,,,102,001,2021_Sep_20_1516,joplin1,2021.2.3,59.6183233085759,
_train_cond.csv,1 0 1 1 1 1 1 1 0 1,2,categoryB,j,,,0,4,4,7,0,4,4,8,,,,,,,,,,,,,,,,,,,f,0,0.32480966695584357,,,,,,,,,,,,,,,,,,,,,,,,,,,,,,,102,001,2021_Sep_20_1516,joplin1,2021.2.3,59.6183233085759,
_train_cond.csv,1 1 1 0 0 0 0 1 1 1,4,categoryB,j,,,0,4,4,7,0,5,5,10,,,,,,,,,,,,,,,,,,,f,0,0.43775558401830494,,,,,,,,,,,,,,,,,,,,,,,,,,,,,,,102,001,2021_Sep_20_1516,joplin1,2021.2.3,59.6183233085759,
_train_cond.csv,0 1 1 1 1 1 1 1 1 0,2,categoryB,j,,,0,4,4,7,0,6,6,7,,,,,,,,,,,,,,,,,,,j,1,0.6016394579783082,,,,,,,,,,,,,,,,,,,,,,,,,,,,,,,102,001,2021_Sep_20_1516,joplin1,2021.2.3,59.6183233085759,
_train_cond.csv,0 0 1 0 1 1 0 1 0 0,6,categoryA,f,,,0,4,4,7,0,7,7,2,,,,,,,,,,,,,,,,,,,f,1,0.07175820786505938,,,,,,,,,,,,,,,,,,,,,,,,,,,,,,,102,001,2021_Sep_20_1516,joplin1,2021.2.3,59.6183233085759,
_train_cond.csv,0 0 1 1 1 1 1 1 0 0,4,categoryB,j,,,0,4,4,7,0,8,8,13,,,,,,,,,,,,,,,,,,,j,1,0.44164883298799396,,,,,,,,,,,,,,,,,,,,,,,,,,,,,,,102,001,2021_Sep_20_1516,joplin1,2021.2.3,59.6183233085759,
_train_cond.csv,1 1 0 1 0 0 1 0 1 1,4,categoryB,j,,,0,4,4,7,0,9,9,9,,,,,,,,,,,,,,,,,,,f,0,0.5086305420845747,,,,,,,,,,,,,,,,,,,,,,,,,,,,,,,102,001,2021_Sep_20_1516,joplin1,2021.2.3,59.6183233085759,
_train_cond.csv,1 1 1 0 1 1 0 1 1 1,2,categoryB,j,,,0,4,4,7,0,10,10,11,,,,,,,,,,,,,,,,,,,j,1,0.4912477498874068,,,,,,,,,,,,,,,,,,,,,,,,,,,,,,,102,001,2021_Sep_20_1516,joplin1,2021.2.3,59.6183233085759,
_train_cond.csv,1 0 0 0 0 0 0 0 0 1,8,categoryA,f,,,0,4,4,7,0,11,11,0,,,,,,,,,,,,,,,,,,,f,1,0.40598529181443155,,,,,,,,,,,,,,,,,,,,,,,,,,,,,,,102,001,2021_Sep_20_1516,joplin1,2021.2.3,59.6183233085759,
_train_cond.csv,0 1 0 0 0 0 0 0 1 0,8,categoryA,f,,,0,4,4,7,0,12,12,1,,,,,,,,,,,,,,,,,,,j,0,0.49852716620080173,,,,,,,,,,,,,,,,,,,,,,,,,,,,,,,102,001,2021_Sep_20_1516,joplin1,2021.2.3,59.6183233085759,
_train_cond.csv,0 0 0 1 0 0 1 0 0 0,8,categoryA,f,,,0,4,4,7,0,13,13,4,,,,,,,,,,,,,,,,,,,f,1,0.3477895827963948,,,,,,,,,,,,,,,,,,,,,,,,,,,,,,,102,001,2021_Sep_20_1516,joplin1,2021.2.3,59.6183233085759,
_train_cond.csv,1 1 0 1 0 0 1 0 1 1,4,categoryB,j,,,0,4,4,7,1,0,14,9,,,,,,,,,,,,,,,,,,,j,1,0.3805068749934435,,,,,,,,,,,,,,,,,,,,,,,,,,,,,,,102,001,2021_Sep_20_1516,joplin1,2021.2.3,59.6183233085759,
_train_cond.csv,1 1 0 1 1 1 1 0 1 1,2,categoryB,j,,,0,4,4,7,1,1,15,12,,,,,,,,,,,,,,,,,,,f,0,0.6195974578149617,,,,,,,,,,,,,,,,,,,,,,,,,,,,,,,102,001,2021_Sep_20_1516,joplin1,2021.2.3,59.6183233085759,
_train_cond.csv,1 0 1 1 1 1 1 1 0 1,2,categoryB,j,,,0,4,4,7,1,2,16,8,,,,,,,,,,,,,,,,,,,j,1,0.5364222500938922,,,,,,,,,,,,,,,,,,,,,,,,,,,,,,,102,001,2021_Sep_20_1516,joplin1,2021.2.3,59.6183233085759,
_train_cond.csv,1 1 1 0 0 0 0 1 1 1,4,categoryB,j,,,0,4,4,7,1,3,17,10,,,,,,,,,,,,,,,,,,,f,0,0.42401474993675947,,,,,,,,,,,,,,,,,,,,,,,,,,,,,,,102,001,2021_Sep_20_1516,joplin1,2021.2.3,59.6183233085759,
_train_cond.csv,1 0 0 0 0 0 0 0 0 1,8,categoryA,f,,,0,4,4,7,1,4,18,0,,,,,,,,,,,,,,,,,,,j,0,0.364490499952808,,,,,,,,,,,,,,,,,,,,,,,,,,,,,,,102,001,2021_Sep_20_1516,joplin1,2021.2.3,59.6183233085759,
_train_cond.csv,0 1 1 1 1 1 1 1 1 0,2,categoryB,j,,,0,4,4,7,1,5,19,7,,,,,,,,,,,,,,,,,,,f,0,0.052168834023177624,,,,,,,,,,,,,,,,,,,,,,,,,,,,,,,102,001,2021_Sep_20_1516,joplin1,2021.2.3,59.6183233085759,
_train_cond.csv,0 1 0 0 0 0 0 0 1 0,8,categoryA,f,,,0,4,4,7,1,6,20,1,,,,,,,,,,,,,,,,,,,j,0,1.3351017499808222,,,,,,,,,,,,,,,,,,,,,,,,,,,,,,,102,001,2021_Sep_20_1516,joplin1,2021.2.3,59.6183233085759,
_train_cond.csv,1 1 0 0 0 0 0 0 1 1,6,categoryA,f,,,0,4,4,7,1,7,21,6,,,,,,,,,,,,,,,,,,,f,1,0.055004625115543604,,,,,,,,,,,,,,,,,,,,,,,,,,,,,,,102,001,2021_Sep_20_1516,joplin1,2021.2.3,59.6183233085759,
_train_cond.csv,0 0 1 0 0 0 0 1 0 0,8,categoryA,f,,,0,4,4,7,1,8,22,5,,,,,,,,,,,,,,,,,,,f,1,0.17618991597555578,,,,,,,,,,,,,,,,,,,,,,,,,,,,,,,102,001,2021_Sep_20_1516,joplin1,2021.2.3,59.6183233085759,
_train_cond.csv,0 0 1 0 1 1 0 1 0 0,6,categoryA,f,,,0,4,4,7,1,9,23,2,,,,,,,,,,,,,,,,,,,f,1,0.6077246670611203,,,,,,,,,,,,,,,,,,,,,,,,,,,,,,,102,001,2021_Sep_20_1516,joplin1,2021.2.3,59.6183233085759,
_train_cond.csv,0 0 0 1 1 1 1 0 0 0,6,categoryA,f,,,0,4,4,7,1,10,24,3,,,,,,,,,,,,,,,,,,,j,0,0.41134700016118586,,,,,,,,,,,,,,,,,,,,,,,,,,,,,,,102,001,2021_Sep_20_1516,joplin1,2021.2.3,59.6183233085759,
_train_cond.csv,0 0 0 1 0 0 1 0 0 0,8,categoryA,f,,,0,4,4,7,1,11,25,4,,,,,,,,,,,,,,,,,,,j,0,0.25728183309547603,,,,,,,,,,,,,,,,,,,,,,,,,,,,,,,102,001,2021_Sep_20_1516,joplin1,2021.2.3,59.6183233085759,
_train_cond.csv,0 0 1 1 1 1 1 1 0 0,4,categoryB,j,,,0,4,4,7,1,12,26,13,,,,,,,,,,,,,,,,,,,f,0,0.046153999865055084,,,,,,,,,,,,,,,,,,,,,,,,,,,,,,,102,001,2021_Sep_20_1516,joplin1,2021.2.3,59.6183233085759,
_train_cond.csv,1 1 1 0 1 1 0 1 1 1,2,categoryB,j,,,0,4,4,7,1,13,27,11,,,,,,,,,,,,,,,,,,,f,0,0.36051766597665846,,,,,,,,,,,,,,,,,,,,,,,,,,,,,,,102,001,2021_Sep_20_1516,joplin1,2021.2.3,59.6183233085759,
_train_cond.csv,1 1 1 0 0 0 0 1 1 1,4,categoryB,j,,,0,4,4,7,2,0,28,10,,,,,,,,,,,,,,,,,,,j,1,0.3371991249732673,,,,,,,,,,,,,,,,,,,,,,,,,,,,,,,102,001,2021_Sep_20_1516,joplin1,2021.2.3,59.6183233085759,
_train_cond.csv,0 0 1 0 1 1 0 1 0 0,6,categoryA,f,,,0,4,4,7,2,1,29,2,,,,,,,,,,,,,,,,,,,f,1,0.3693890830036253,,,,,,,,,,,,,,,,,,,,,,,,,,,,,,,102,001,2021_Sep_20_1516,joplin1,2021.2.3,59.6183233085759,
_train_cond.csv,0 0 1 1 1 1 1 1 0 0,4,categoryB,j,,,0,4,4,7,2,2,30,13,,,,,,,,,,,,,,,,,,,j,1,0.4554417079780251,,,,,,,,,,,,,,,,,,,,,,,,,,,,,,,102,001,2021_Sep_20_1516,joplin1,2021.2.3,59.6183233085759,
_train_cond.csv,0 1 1 1 1 1 1 1 1 0,2,categoryB,j,,,0,4,4,7,2,3,31,7,,,,,,,,,,,,,,,,,,,f,0,0.2505938340909779,,,,,,,,,,,,,,,,,,,,,,,,,,,,,,,102,001,2021_Sep_20_1516,joplin1,2021.2.3,59.6183233085759,
_train_cond.csv,1 1 0 1 1 1 1 0 1 1,2,categoryB,j,,,0,4,4,7,2,4,32,12,,,,,,,,,,,,,,,,,,,j,1,0.46301408391445875,,,,,,,,,,,,,,,,,,,,,,,,,,,,,,,102,001,2021_Sep_20_1516,joplin1,2021.2.3,59.6183233085759,
_train_cond.csv,0 0 1 0 0 0 0 1 0 0,8,categoryA,f,,,0,4,4,7,2,5,33,5,,,,,,,,,,,,,,,,,,,f,1,0.4579736250452697,,,,,,,,,,,,,,,,,,,,,,,,,,,,,,,102,001,2021_Sep_20_1516,joplin1,2021.2.3,59.6183233085759,
_train_cond.csv,1 0 0 0 0 0 0 0 0 1,8,categoryA,f,,,0,4,4,7,2,6,34,0,,,,,,,,,,,,,,,,,,,f,1,0.5890536250080913,,,,,,,,,,,,,,,,,,,,,,,,,,,,,,,102,001,2021_Sep_20_1516,joplin1,2021.2.3,59.6183233085759,
_train_cond.csv,0 0 0 1 1 1 1 0 0 0,6,categoryA,f,,,0,4,4,7,2,7,35,3,,,,,,,,,,,,,,,,,,,j,0,0.5222878330387175,,,,,,,,,,,,,,,,,,,,,,,,,,,,,,,102,001,2021_Sep_20_1516,joplin1,2021.2.3,59.6183233085759,
_train_cond.csv,1 0 1 1 1 1 1 1 0 1,2,categoryB,j,,,0,4,4,7,2,8,36,8,,,,,,,,,,,,,,,,,,,f,0,0.33895250014029443,,,,,,,,,,,,,,,,,,,,,,,,,,,,,,,102,001,2021_Sep_20_1516,joplin1,2021.2.3,59.6183233085759,
_train_cond.csv,1 1 0 0 0 0 0 0 1 1,6,categoryA,f,,,0,4,4,7,2,9,37,6,,,,,,,,,,,,,,,,,,,f,1,0.52082833298482,,,,,,,,,,,,,,,,,,,,,,,,,,,,,,,102,001,2021_Sep_20_1516,joplin1,2021.2.3,59.6183233085759,
_train_cond.csv,0 0 0 1 0 0 1 0 0 0,8,categoryA,f,,,0,4,4,7,2,10,38,4,,,,,,,,,,,,,,,,,,,f,1,0.7058259590994567,,,,,,,,,,,,,,,,,,,,,,,,,,,,,,,102,001,2021_Sep_20_1516,joplin1,2021.2.3,59.6183233085759,
_train_cond.csv,1 1 0 1 0 0 1 0 1 1,4,categoryB,j,,,0,4,4,7,2,11,39,9,,,,,,,,,,,,,,,,,,,f,0,0.45066991704516113,,,,,,,,,,,,,,,,,,,,,,,,,,,,,,,102,001,2021_Sep_20_1516,joplin1,2021.2.3,59.6183233085759,
_train_cond.csv,1 1 1 0 1 1 0 1 1 1,2,categoryB,j,,,0,4,4,7,2,12,40,11,,,,,,,,,,,,,,,,,,,j,1,0.29467591689899564,,,,,,,,,,,,,,,,,,,,,,,,,,,,,,,102,001,2021_Sep_20_1516,joplin1,2021.2.3,59.6183233085759,
_train_cond.csv,0 1 0 0 0 0 0 0 1 0,8,categoryA,f,,,0,4,4,7,2,13,41,1,,,,,,,,,,,,,,,,,,,f,1,0.6325333751738071,,,,,,,,,,,,,,,,,,,,,,,,,,,,,,,102,001,2021_Sep_20_1516,joplin1,2021.2.3,59.6183233085759,
_train_cond.csv,,,,,,,0,4,4,7,,,,,,,,,,,,,,,,,,,,,,,,,,space,6.365557207958773,,,,,,,,,,,,,,,,,,,,,,,,,,,,,102,001,2021_Sep_20_1516,joplin1,2021.2.3,59.6183233085759,
_train_cond.csv,0 1 1 1 1 1 1 1 1 0,2,categoryB,j,,,0,5,5,5,0,0,0,7,,,,,,,,,,,,,,,,,,,f,0,2.370263250079006,,,,,,,,,,,,,,,,,,,,,,,,,,,,,,,102,001,2021_Sep_20_1516,joplin1,2021.2.3,59.6183233085759,
_train_cond.csv,0 0 1 0 1 1 0 1 0 0,6,categoryA,f,,,0,5,5,5,0,1,1,2,,,,,,,,,,,,,,,,,,,f,1,0.3921920829452574,,,,,,,,,,,,,,,,,,,,,,,,,,,,,,,102,001,2021_Sep_20_1516,joplin1,2021.2.3,59.6183233085759,
_train_cond.csv,1 1 0 0 0 0 0 0 1 1,6,categoryA,f,,,0,5,5,5,0,2,2,6,,,,,,,,,,,,,,,,,,,f,1,0.4292215001769364,,,,,,,,,,,,,,,,,,,,,,,,,,,,,,,102,001,2021_Sep_20_1516,joplin1,2021.2.3,59.6183233085759,
_train_cond.csv,1 1 0 1 1 1 1 0 1 1,2,categoryB,j,,,0,5,5,5,0,3,3,12,,,,,,,,,,,,,,,,,,,f,0,0.48263241699896753,,,,,,,,,,,,,,,,,,,,,,,,,,,,,,,102,001,2021_Sep_20_1516,joplin1,2021.2.3,59.6183233085759,
_train_cond.csv,0 1 0 0 0 0 0 0 1 0,8,categoryA,f,,,0,5,5,5,0,4,4,1,,,,,,,,,,,,,,,,,,,f,1,0.34095500013791025,,,,,,,,,,,,,,,,,,,,,,,,,,,,,,,102,001,2021_Sep_20_1516,joplin1,2021.2.3,59.6183233085759,
_train_cond.csv,0 0 0 1 1 1 1 0 0 0,6,categoryA,f,,,0,5,5,5,0,5,5,3,,,,,,,,,,,,,,,,,,,j,0,0.4763020419050008,,,,,,,,,,,,,,,,,,,,,,,,,,,,,,,102,001,2021_Sep_20_1516,joplin1,2021.2.3,59.6183233085759,
_train_cond.csv,1 1 1 0 1 1 0 1 1 1,2,categoryB,j,,,0,5,5,5,0,6,6,11,,,,,,,,,,,,,,,,,,,f,0,0.5908418751787394,,,,,,,,,,,,,,,,,,,,,,,,,,,,,,,102,001,2021_Sep_20_1516,joplin1,2021.2.3,59.6183233085759,
_train_cond.csv,0 0 1 0 0 0 0 1 0 0,8,categoryA,f,,,0,5,5,5,0,7,7,5,,,,,,,,,,,,,,,,,,,j,0,0.3154982498381287,,,,,,,,,,,,,,,,,,,,,,,,,,,,,,,102,001,2021_Sep_20_1516,joplin1,2021.2.3,59.6183233085759,
_train_cond.csv,1 0 1 1 1 1 1 1 0 1,2,categoryB,j,,,0,5,5,5,0,8,8,8,,,,,,,,,,,,,,,,,,,f,0,0.37348570791073143,,,,,,,,,,,,,,,,,,,,,,,,,,,,,,,102,001,2021_Sep_20_1516,joplin1,2021.2.3,59.6183233085759,
_train_cond.csv,0 0 1 1 1 1 1 1 0 0,4,categoryB,j,,,0,5,5,5,0,9,9,13,,,,,,,,,,,,,,,,,,,j,1,0.4516883338801563,,,,,,,,,,,,,,,,,,,,,,,,,,,,,,,102,001,2021_Sep_20_1516,joplin1,2021.2.3,59.6183233085759,
_train_cond.csv,0 0 0 1 0 0 1 0 0 0,8,categoryA,f,,,0,5,5,5,0,10,10,4,,,,,,,,,,,,,,,,,,,f,1,0.6944093750789762,,,,,,,,,,,,,,,,,,,,,,,,,,,,,,,102,001,2021_Sep_20_1516,joplin1,2021.2.3,59.6183233085759,
_train_cond.csv,1 1 0 1 0 0 1 0 1 1,4,categoryB,j,,,0,5,5,5,0,11,11,9,,,,,,,,,,,,,,,,,,,j,1,0.47303016600199044,,,,,,,,,,,,,,,,,,,,,,,,,,,,,,,102,001,2021_Sep_20_1516,joplin1,2021.2.3,59.6183233085759,
_train_cond.csv,1 1 1 0 0 0 0 1 1 1,4,categoryB,j,,,0,5,5,5,0,12,12,10,,,,,,,,,,,,,,,,,,,f,0,0.5475965831428766,,,,,,,,,,,,,,,,,,,,,,,,,,,,,,,102,001,2021_Sep_20_1516,joplin1,2021.2.3,59.6183233085759,
_train_cond.csv,1 0 0 0 0 0 0 0 0 1,8,categoryA,f,,,0,5,5,5,0,13,13,0,,,,,,,,,,,,,,,,,,,j,0,0.4109838749282062,,,,,,,,,,,,,,,,,,,,,,,,,,,,,,,102,001,2021_Sep_20_1516,joplin1,2021.2.3,59.6183233085759,
_train_cond.csv,0 1 0 0 0 0 0 0 1 0,8,categoryA,f,,,0,5,5,5,1,0,14,1,,,,,,,,,,,,,,,,,,,f,1,0.7272707079537213,,,,,,,,,,,,,,,,,,,,,,,,,,,,,,,102,001,2021_Sep_20_1516,joplin1,2021.2.3,59.6183233085759,
_train_cond.csv,0 0 0 1 0 0 1 0 0 0,8,categoryA,f,,,0,5,5,5,1,1,15,4,,,,,,,,,,,,,,,,,,,j,0,0.34408237505704165,,,,,,,,,,,,,,,,,,,,,,,,,,,,,,,102,001,2021_Sep_20_1516,joplin1,2021.2.3,59.6183233085759,
_train_cond.csv,1 1 0 1 0 0 1 0 1 1,4,categoryB,j,,,0,5,5,5,1,2,16,9,,,,,,,,,,,,,,,,,,,f,0,0.2653173340950161,,,,,,,,,,,,,,,,,,,,,,,,,,,,,,,102,001,2021_Sep_20_1516,joplin1,2021.2.3,59.6183233085759,
_train_cond.csv,1 0 1 1 1 1 1 1 0 1,2,categoryB,j,,,0,5,5,5,1,3,17,8,,,,,,,,,,,,,,,,,,,f,0,0.5236858329735696,,,,,,,,,,,,,,,,,,,,,,,,,,,,,,,102,001,2021_Sep_20_1516,joplin1,2021.2.3,59.6183233085759,
_train_cond.csv,0 0 1 0 1 1 0 1 0 0,6,categoryA,f,,,0,5,5,5,1,4,18,2,,,,,,,,,,,,,,,,,,,j,0,0.35663137515075505,,,,,,,,,,,,,,,,,,,,,,,,,,,,,,,102,001,2021_Sep_20_1516,joplin1,2021.2.3,59.6183233085759,
_train_cond.csv,0 0 1 0 0 0 0 1 0 0,8,categoryA,f,,,0,5,5,5,1,5,19,5,,,,,,,,,,,,,,,,,,,f,1,0.30031349998898804,,,,,,,,,,,,,,,,,,,,,,,,,,,,,,,102,001,2021_Sep_20_1516,joplin1,2021.2.3,59.6183233085759,
_train_cond.csv,1 1 0 1 1 1 1 0 1 1,2,categoryB,j,,,0,5,5,5,1,6,20,12,,,,,,,,,,,,,,,,,,,j,1,0.4533712088596076,,,,,,,,,,,,,,,,,,,,,,,,,,,,,,,102,001,2021_Sep_20_1516,joplin1,2021.2.3,59.6183233085759,
_train_cond.csv,0 1 1 1 1 1 1 1 1 0,2,categoryB,j,,,0,5,5,5,1,7,21,7,,,,,,,,,,,,,,,,,,,f,0,0.11309829214587808,,,,,,,,,,,,,,,,,,,,,,,,,,,,,,,102,001,2021_Sep_20_1516,joplin1,2021.2.3,59.6183233085759,
_train_cond.csv,0 0 1 1 1 1 1 1 0 0,4,categoryB,j,,,0,5,5,5,1,8,22,13,,,,,,,,,,,,,,,,,,,f,0,0.4349489170126617,,,,,,,,,,,,,,,,,,,,,,,,,,,,,,,102,001,2021_Sep_20_1516,joplin1,2021.2.3,59.6183233085759,
_train_cond.csv,0 0 0 1 1 1 1 0 0 0,6,categoryA,f,,,0,5,5,5,1,9,23,3,,,,,,,,,,,,,,,,,,,j,0,0.6157937918324023,,,,,,,,,,,,,,,,,,,,,,,,,,,,,,,102,001,2021_Sep_20_1516,joplin1,2021.2.3,59.6183233085759,
_train_cond.csv,1 1 1 0 0 0 0 1 1 1,4,categoryB,j,,,0,5,5,5,1,10,24,10,,,,,,,,,,,,,,,,,,,j,1,0.4609554579947144,,,,,,,,,,,,,,,,,,,,,,,,,,,,,,,102,001,2021_Sep_20_1516,joplin1,2021.2.3,59.6183233085759,
_train_cond.csv,1 1 1 0 1 1 0 1 1 1,2,categoryB,j,,,0,5,5,5,1,11,25,11,,,,,,,,,,,,,,,,,,,f,0,0.8001450840383768,,,,,,,,,,,,,,,,,,,,,,,,,,,,,,,102,001,2021_Sep_20_1516,joplin1,2021.2.3,59.6183233085759,
_train_cond.csv,1 0 0 0 0 0 0 0 0 1,8,categoryA,f,,,0,5,5,5,1,12,26,0,,,,,,,,,,,,,,,,,,,f,1,0.5977189170662314,,,,,,,,,,,,,,,,,,,,,,,,,,,,,,,102,001,2021_Sep_20_1516,joplin1,2021.2.3,59.6183233085759,
_train_cond.csv,1 1 0 0 0 0 0 0 1 1,6,categoryA,f,,,0,5,5,5,1,13,27,6,,,,,,,,,,,,,,,,,,,j,0,0.6980217501986772,,,,,,,,,,,,,,,,,,,,,,,,,,,,,,,102,001,2021_Sep_20_1516,joplin1,2021.2.3,59.6183233085759,
_train_cond.csv,0 0 1 0 0 0 0 1 0 0,8,categoryA,f,,,0,5,5,5,2,0,28,5,,,,,,,,,,,,,,,,,,,f,1,0.708399916999042,,,,,,,,,,,,,,,,,,,,,,,,,,,,,,,102,001,2021_Sep_20_1516,joplin1,2021.2.3,59.6183233085759,
_train_cond.csv,1 0 1 1 1 1 1 1 0 1,2,categoryB,j,,,0,5,5,5,2,1,29,8,,,,,,,,,,,,,,,,,,,f,0,0.42169758304953575,,,,,,,,,,,,,,,,,,,,,,,,,,,,,,,102,001,2021_Sep_20_1516,joplin1,2021.2.3,59.6183233085759,
_train_cond.csv,0 0 1 0 1 1 0 1 0 0,6,categoryA,f,,,0,5,5,5,2,2,30,2,,,,,,,,,,,,,,,,,,,j,0,0.5776855829171836,,,,,,,,,,,,,,,,,,,,,,,,,,,,,,,102,001,2021_Sep_20_1516,joplin1,2021.2.3,59.6183233085759,
_train_cond.csv,0 1 1 1 1 1 1 1 1 0,2,categoryB,j,,,0,5,5,5,2,3,31,7,,,,,,,,,,,,,,,,,,,f,0,0.558801915962249,,,,,,,,,,,,,,,,,,,,,,,,,,,,,,,102,001,2021_Sep_20_1516,joplin1,2021.2.3,59.6183233085759,
_train_cond.csv,0 1 0 0 0 0 0 0 1 0,8,categoryA,f,,,0,5,5,5,2,4,32,1,,,,,,,,,,,,,,,,,,,j,0,0.3588069579564035,,,,,,,,,,,,,,,,,,,,,,,,,,,,,,,102,001,2021_Sep_20_1516,joplin1,2021.2.3,59.6183233085759,
_train_cond.csv,1 1 0 0 0 0 0 0 1 1,6,categoryA,f,,,0,5,5,5,2,5,33,6,,,,,,,,,,,,,,,,,,,f,1,0.40595012507401407,,,,,,,,,,,,,,,,,,,,,,,,,,,,,,,102,001,2021_Sep_20_1516,joplin1,2021.2.3,59.6183233085759,
_train_cond.csv,1 1 1 0 1 1 0 1 1 1,2,categoryB,j,,,0,5,5,5,2,6,34,11,,,,,,,,,,,,,,,,,,,f,0,0.8898441249039024,,,,,,,,,,,,,,,,,,,,,,,,,,,,,,,102,001,2021_Sep_20_1516,joplin1,2021.2.3,59.6183233085759,
_train_cond.csv,0 0 1 1 1 1 1 1 0 0,4,categoryB,j,,,0,5,5,5,2,7,35,13,,,,,,,,,,,,,,,,,,,j,1,0.42025766684673727,,,,,,,,,,,,,,,,,,,,,,,,,,,,,,,102,001,2021_Sep_20_1516,joplin1,2021.2.3,59.6183233085759,
_train_cond.csv,0 0 0 1 1 1 1 0 0 0,6,categoryA,f,,,0,5,5,5,2,8,36,3,,,,,,,,,,,,,,,,,,,f,1,0.19989316584542394,,,,,,,,,,,,,,,,,,,,,,,,,,,,,,,102,001,2021_Sep_20_1516,joplin1,2021.2.3,59.6183233085759,
_train_cond.csv,1 1 0 1 0 0 1 0 1 1,4,categoryB,j,,,0,5,5,5,2,9,37,9,,,,,,,,,,,,,,,,,,,j,1,0.0457097920589149,,,,,,,,,,,,,,,,,,,,,,,,,,,,,,,102,001,2021_Sep_20_1516,joplin1,2021.2.3,59.6183233085759,
_train_cond.csv,1 1 0 1 1 1 1 0 1 1,2,categoryB,j,,,0,5,5,5,2,10,38,12,,,,,,,,,,,,,,,,,,,f,0,0.49733816599473357,,,,,,,,,,,,,,,,,,,,,,,,,,,,,,,102,001,2021_Sep_20_1516,joplin1,2021.2.3,59.6183233085759,
_train_cond.csv,1 0 0 0 0 0 0 0 0 1,8,categoryA,f,,,0,5,5,5,2,11,39,0,,,,,,,,,,,,,,,,,,,None,0,,,,,,,,,,,,,,,,,,,,,,,,,,,,,,,,102,001,2021_Sep_20_1516,joplin1,2021.2.3,59.6183233085759,
_train_cond.csv,1 1 1 0 0 0 0 1 1 1,4,categoryB,j,,,0,5,5,5,2,12,40,10,,,,,,,,,,,,,,,,,,,f,0,0.3675317498855293,,,,,,,,,,,,,,,,,,,,,,,,,,,,,,,102,001,2021_Sep_20_1516,joplin1,2021.2.3,59.6183233085759,
_train_cond.csv,0 0 0 1 0 0 1 0 0 0,8,categoryA,f,,,0,5,5,5,2,13,41,4,,,,,,,,,,,,,,,,,,,j,0,0.5092631671577692,,,,,,,,,,,,,,,,,,,,,,,,,,,,,,,102,001,2021_Sep_20_1516,joplin1,2021.2.3,59.6183233085759,
_train_cond.csv,,,,,,,0,5,5,5,,,,,,,,,,,,,,,,,,,,,,,,,,space,2.9184081251733005,,,,,,,,,,,,,,,,,,,,,,,,,,,,,102,001,2021_Sep_20_1516,joplin1,2021.2.3,59.6183233085759,
_train_cond.csv,0 0 0 1 1 1 1 0 0 0,6,categoryA,f,,,0,6,6,6,0,0,0,3,,,,,,,,,,,,,,,,,,,j,0,0.6222713328897953,,,,,,,,,,,,,,,,,,,,,,,,,,,,,,,102,001,2021_Sep_20_1516,joplin1,2021.2.3,59.6183233085759,
_train_cond.csv,0 0 1 0 0 0 0 1 0 0,8,categoryA,f,,,0,6,6,6,0,1,1,5,,,,,,,,,,,,,,,,,,,j,0,0.010728208115324378,,,,,,,,,,,,,,,,,,,,,,,,,,,,,,,102,001,2021_Sep_20_1516,joplin1,2021.2.3,59.6183233085759,
_train_cond.csv,1 1 0 1 0 0 1 0 1 1,4,categoryB,j,,,0,6,6,6,0,2,2,9,,,,,,,,,,,,,,,,,,,j,1,0.10477870795875788,,,,,,,,,,,,,,,,,,,,,,,,,,,,,,,102,001,2021_Sep_20_1516,joplin1,2021.2.3,59.6183233085759,
_train_cond.csv,1 1 0 1 1 1 1 0 1 1,2,categoryB,j,,,0,6,6,6,0,3,3,12,,,,,,,,,,,,,,,,,,,j,1,0.08928558300249279,,,,,,,,,,,,,,,,,,,,,,,,,,,,,,,102,001,2021_Sep_20_1516,joplin1,2021.2.3,59.6183233085759,
_train_cond.csv,1 1 1 0 1 1 0 1 1 1,2,categoryB,j,,,0,6,6,6,0,4,4,11,,,,,,,,,,,,,,,,,,,f,0,0.40401554200798273,,,,,,,,,,,,,,,,,,,,,,,,,,,,,,,102,001,2021_Sep_20_1516,joplin1,2021.2.3,59.6183233085759,
_train_cond.csv,0 1 1 1 1 1 1 1 1 0,2,categoryB,j,,,0,6,6,6,0,5,5,7,,,,,,,,,,,,,,,,,,,f,0,0.7046421670820564,,,,,,,,,,,,,,,,,,,,,,,,,,,,,,,102,001,2021_Sep_20_1516,joplin1,2021.2.3,59.6183233085759,
_train_cond.csv,0 0 1 1 1 1 1 1 0 0,4,categoryB,j,,,0,6,6,6,0,6,6,13,,,,,,,,,,,,,,,,,,,f,0,0.8260119159240276,,,,,,,,,,,,,,,,,,,,,,,,,,,,,,,102,001,2021_Sep_20_1516,joplin1,2021.2.3,59.6183233085759,
_train_cond.csv,0 0 1 0 1 1 0 1 0 0,6,categoryA,f,,,0,6,6,6,0,7,7,2,,,,,,,,,,,,,,,,,,,j,0,0.7098836251534522,,,,,,,,,,,,,,,,,,,,,,,,,,,,,,,102,001,2021_Sep_20_1516,joplin1,2021.2.3,59.6183233085759,
_train_cond.csv,0 0 0 1 0 0 1 0 0 0,8,categoryA,f,,,0,6,6,6,0,8,8,4,,,,,,,,,,,,,,,,,,,j,0,0.39104962488636374,,,,,,,,,,,,,,,,,,,,,,,,,,,,,,,102,001,2021_Sep_20_1516,joplin1,2021.2.3,59.6183233085759,
_train_cond.csv,0 1 0 0 0 0 0 0 1 0,8,categoryA,f,,,0,6,6,6,0,9,9,1,,,,,,,,,,,,,,,,,,,f,1,0.5417351671494544,,,,,,,,,,,,,,,,,,,,,,,,,,,,,,,102,001,2021_Sep_20_1516,joplin1,2021.2.3,59.6183233085759,
_train_cond.csv,1 1 1 0 0 0 0 1 1 1,4,categoryB,j,,,0,6,6,6,0,10,10,10,,,,,,,,,,,,,,,,,,,f,0,0.6470595840364695,,,,,,,,,,,,,,,,,,,,,,,,,,,,,,,102,001,2021_Sep_20_1516,joplin1,2021.2.3,59.6183233085759,
_train_cond.csv,1 0 0 0 0 0 0 0 0 1,8,categoryA,f,,,0,6,6,6,0,11,11,0,,,,,,,,,,,,,,,,,,,j,0,0.6420340840704739,,,,,,,,,,,,,,,,,,,,,,,,,,,,,,,102,001,2021_Sep_20_1516,joplin1,2021.2.3,59.6183233085759,
_train_cond.csv,1 0 1 1 1 1 1 1 0 1,2,categoryB,j,,,0,6,6,6,0,12,12,8,,,,,,,,,,,,,,,,,,,f,0,0.49475345807150006,,,,,,,,,,,,,,,,,,,,,,,,,,,,,,,102,001,2021_Sep_20_1516,joplin1,2021.2.3,59.6183233085759,
_train_cond.csv,1 1 0 0 0 0 0 0 1 1,6,categoryA,f,,,0,6,6,6,0,13,13,6,,,,,,,,,,,,,,,,,,,j,0,0.5514545829501003,,,,,,,,,,,,,,,,,,,,,,,,,,,,,,,102,001,2021_Sep_20_1516,joplin1,2021.2.3,59.6183233085759,
_train_cond.csv,0 0 1 0 0 0 0 1 0 0,8,categoryA,f,,,0,6,6,6,1,0,14,5,,,,,,,,,,,,,,,,,,,f,1,0.4476642080117017,,,,,,,,,,,,,,,,,,,,,,,,,,,,,,,102,001,2021_Sep_20_1516,joplin1,2021.2.3,59.6183233085759,
_train_cond.csv,1 1 1 0 1 1 0 1 1 1,2,categoryB,j,,,0,6,6,6,1,1,15,11,,,,,,,,,,,,,,,,,,,j,1,0.5705449169036001,,,,,,,,,,,,,,,,,,,,,,,,,,,,,,,102,001,2021_Sep_20_1516,joplin1,2021.2.3,59.6183233085759,
_train_cond.csv,1 0 1 1 1 1 1 1 0 1,2,categoryB,j,,,0,6,6,6,1,2,16,8,,,,,,,,,,,,,,,,,,,f,0,0.49809308303520083,,,,,,,,,,,,,,,,,,,,,,,,,,,,,,,102,001,2021_Sep_20_1516,joplin1,2021.2.3,59.6183233085759,
_train_cond.csv,1 1 0 0 0 0 0 0 1 1,6,categoryA,f,,,0,6,6,6,1,3,17,6,,,,,,,,,,,,,,,,,,,j,0,0.5961165828630328,,,,,,,,,,,,,,,,,,,,,,,,,,,,,,,102,001,2021_Sep_20_1516,joplin1,2021.2.3,59.6183233085759,
_train_cond.csv,1 1 1 0 0 0 0 1 1 1,4,categoryB,j,,,0,6,6,6,1,4,18,10,,,,,,,,,,,,,,,,,,,f,0,0.6661958750337362,,,,,,,,,,,,,,,,,,,,,,,,,,,,,,,102,001,2021_Sep_20_1516,joplin1,2021.2.3,59.6183233085759,
_train_cond.csv,0 0 0 1 0 0 1 0 0 0,8,categoryA,f,,,0,6,6,6,1,5,19,4,,,,,,,,,,,,,,,,,,,f,1,0.643974875099957,,,,,,,,,,,,,,,,,,,,,,,,,,,,,,,102,001,2021_Sep_20_1516,joplin1,2021.2.3,59.6183233085759,
_train_cond.csv,0 1 0 0 0 0 0 0 1 0,8,categoryA,f,,,0,6,6,6,1,6,20,1,,,,,,,,,,,,,,,,,,,j,0,0.41551216691732407,,,,,,,,,,,,,,,,,,,,,,,,,,,,,,,102,001,2021_Sep_20_1516,joplin1,2021.2.3,59.6183233085759,
_train_cond.csv,0 0 1 1 1 1 1 1 0 0,4,categoryB,j,,,0,6,6,6,1,7,21,13,,,,,,,,,,,,,,,,,,,f,0,0.5072334171272814,,,,,,,,,,,,,,,,,,,,,,,,,,,,,,,102,001,2021_Sep_20_1516,joplin1,2021.2.3,59.6183233085759,
_train_cond.csv,1 0 0 0 0 0 0 0 0 1,8,categoryA,f,,,0,6,6,6,1,8,22,0,,,,,,,,,,,,,,,,,,,f,1,0.924230125034228,,,,,,,,,,,,,,,,,,,,,,,,,,,,,,,102,001,2021_Sep_20_1516,joplin1,2021.2.3,59.6183233085759,
_train_cond.csv,0 0 1 0 1 1 0 1 0 0,6,categoryA,f,,,0,6,6,6,1,9,23,2,,,,,,,,,,,,,,,,,,,j,0,0.5320890410803258,,,,,,,,,,,,,,,,,,,,,,,,,,,,,,,102,001,2021_Sep_20_1516,joplin1,2021.2.3,59.6183233085759,
_train_cond.csv,0 1 1 1 1 1 1 1 1 0,2,categoryB,j,,,0,6,6,6,1,10,24,7,,,,,,,,,,,,,,,,,,,f,0,0.3804611670784652,,,,,,,,,,,,,,,,,,,,,,,,,,,,,,,102,001,2021_Sep_20_1516,joplin1,2021.2.3,59.6183233085759,
_train_cond.csv,1 1 0 1 0 0 1 0 1 1,4,categoryB,j,,,0,6,6,6,1,11,25,9,,,,,,,,,,,,,,,,,,,j,1,0.538926166947931,,,,,,,,,,,,,,,,,,,,,,,,,,,,,,,102,001,2021_Sep_20_1516,joplin1,2021.2.3,59.6183233085759,
_train_cond.csv,0 0 0 1 1 1 1 0 0 0,6,categoryA,f,,,0,6,6,6,1,12,26,3,,,,,,,,,,,,,,,,,,,f,1,0.47499620798043907,,,,,,,,,,,,,,,,,,,,,,,,,,,,,,,102,001,2021_Sep_20_1516,joplin1,2021.2.3,59.6183233085759,
_train_cond.csv,1 1 0 1 1 1 1 0 1 1,2,categoryB,j,,,0,6,6,6,1,13,27,12,,,,,,,,,,,,,,,,,,,f,0,0.6286197081208229,,,,,,,,,,,,,,,,,,,,,,,,,,,,,,,102,001,2021_Sep_20_1516,joplin1,2021.2.3,59.6183233085759,
_train_cond.csv,0 0 1 0 1 1 0 1 0 0,6,categoryA,f,,,0,6,6,6,2,0,28,2,,,,,,,,,,,,,,,,,,,f,1,0.5944605828262866,,,,,,,,,,,,,,,,,,,,,,,,,,,,,,,102,001,2021_Sep_20_1516,joplin1,2021.2.3,59.6183233085759,
_train_cond.csv,0 0 0 1 0 0 1 0 0 0,8,categoryA,f,,,0,6,6,6,2,1,29,4,,,,,,,,,,,,,,,,,,,f,1,0.47103887517005205,,,,,,,,,,,,,,,,,,,,,,,,,,,,,,,102,001,2021_Sep_20_1516,joplin1,2021.2.3,59.6183233085759,
_train_cond.csv,1 1 0 1 1 1 1 0 1 1,2,categoryB,j,,,0,6,6,6,2,2,30,12,,,,,,,,,,,,,,,,,,,j,1,0.8592491659801453,,,,,,,,,,,,,,,,,,,,,,,,,,,,,,,102,001,2021_Sep_20_1516,joplin1,2021.2.3,59.6183233085759,
_train_cond.csv,1 0 0 0 0 0 0 0 0 1,8,categoryA,f,,,0,6,6,6,2,3,31,0,,,,,,,,,,,,,,,,,,,j,0,0.38221933296881616,,,,,,,,,,,,,,,,,,,,,,,,,,,,,,,102,001,2021_Sep_20_1516,joplin1,2021.2.3,59.6183233085759,
_train_cond.csv,0 0 1 0 0 0 0 1 0 0,8,categoryA,f,,,0,6,6,6,2,4,32,5,,,,,,,,,,,,,,,,,,,f,1,0.8049362499732524,,,,,,,,,,,,,,,,,,,,,,,,,,,,,,,102,001,2021_Sep_20_1516,joplin1,2021.2.3,59.6183233085759,
_train_cond.csv,1 0 1 1 1 1 1 1 0 1,2,categoryB,j,,,0,6,6,6,2,5,33,8,,,,,,,,,,,,,,,,,,,f,0,0.010305791860446334,,,,,,,,,,,,,,,,,,,,,,,,,,,,,,,102,001,2021_Sep_20_1516,joplin1,2021.2.3,59.6183233085759,
_train_cond.csv,1 1 0 1 0 0 1 0 1 1,4,categoryB,j,,,0,6,6,6,2,6,34,9,,,,,,,,,,,,,,,,,,,f,0,1.2554286250378937,,,,,,,,,,,,,,,,,,,,,,,,,,,,,,,102,001,2021_Sep_20_1516,joplin1,2021.2.3,59.6183233085759,
_train_cond.csv,1 1 1 0 0 0 0 1 1 1,4,categoryB,j,,,0,6,6,6,2,7,35,10,,,,,,,,,,,,,,,,,,,f,0,0.5227757501415908,,,,,,,,,,,,,,,,,,,,,,,,,,,,,,,102,001,2021_Sep_20_1516,joplin1,2021.2.3,59.6183233085759,
_train_cond.csv,1 1 1 0 1 1 0 1 1 1,2,categoryB,j,,,0,6,6,6,2,8,36,11,,,,,,,,,,,,,,,,,,,j,1,0.9318113748449832,,,,,,,,,,,,,,,,,,,,,,,,,,,,,,,102,001,2021_Sep_20_1516,joplin1,2021.2.3,59.6183233085759,
_train_cond.csv,0 1 1 1 1 1 1 1 1 0,2,categoryB,j,,,0,6,6,6,2,9,37,7,,,,,,,,,,,,,,,,,,,f,0,0.6285266659688205,,,,,,,,,,,,,,,,,,,,,,,,,,,,,,,102,001,2021_Sep_20_1516,joplin1,2021.2.3,59.6183233085759,
_train_cond.csv,0 0 1 1 1 1 1 1 0 0,4,categoryB,j,,,0,6,6,6,2,10,38,13,,,,,,,,,,,,,,,,,,,j,1,0.9037805830594152,,,,,,,,,,,,,,,,,,,,,,,,,,,,,,,102,001,2021_Sep_20_1516,joplin1,2021.2.3,59.6183233085759,
_train_cond.csv,0 1 0 0 0 0 0 0 1 0,8,categoryA,f,,,0,6,6,6,2,11,39,1,,,,,,,,,,,,,,,,,,,f,1,0.5208665409591049,,,,,,,,,,,,,,,,,,,,,,,,,,,,,,,102,001,2021_Sep_20_1516,joplin1,2021.2.3,59.6183233085759,
_train_cond.csv,0 0 0 1 1 1 1 0 0 0,6,categoryA,f,,,0,6,6,6,2,12,40,3,,,,,,,,,,,,,,,,,,,f,1,0.6725003749597818,,,,,,,,,,,,,,,,,,,,,,,,,,,,,,,102,001,2021_Sep_20_1516,joplin1,2021.2.3,59.6183233085759,
_train_cond.csv,1 1 0 0 0 0 0 0 1 1,6,categoryA,f,,,0,6,6,6,2,13,41,6,,,,,,,,,,,,,,,,,,,f,1,0.5543632078915834,,,,,,,,,,,,,,,,,,,,,,,,,,,,,,,102,001,2021_Sep_20_1516,joplin1,2021.2.3,59.6183233085759,
_train_cond.csv,,,,,,,0,6,6,6,,,,,,,,,,,,,,,,,,,,,,,,,,space,7.2105265418067575,,,,,,,,,,,,,,,,,,,,,,,,,,,,,102,001,2021_Sep_20_1516,joplin1,2021.2.3,59.6183233085759,
_train_cond.csv,1 1 1 0 0 0 0 1 1 1,4,categoryB,j,,,0,7,7,0,0,0,0,10,,,,,,,,,,,,,,,,,,,j,1,1.063008249970153,,,,,,,,,,,,,,,,,,,,,,,,,,,,,,,102,001,2021_Sep_20_1516,joplin1,2021.2.3,59.6183233085759,
_train_cond.csv,0 0 1 0 1 1 0 1 0 0,6,categoryA,f,,,0,7,7,0,0,1,1,2,,,,,,,,,,,,,,,,,,,f,1,0.19349012500606477,,,,,,,,,,,,,,,,,,,,,,,,,,,,,,,102,001,2021_Sep_20_1516,joplin1,2021.2.3,59.6183233085759,
_train_cond.csv,0 0 0 1 0 0 1 0 0 0,8,categoryA,f,,,0,7,7,0,0,2,2,4,,,,,,,,,,,,,,,,,,,j,0,0.4874922919552773,,,,,,,,,,,,,,,,,,,,,,,,,,,,,,,102,001,2021_Sep_20_1516,joplin1,2021.2.3,59.6183233085759,
_train_cond.csv,0 1 0 0 0 0 0 0 1 0,8,categoryA,f,,,0,7,7,0,0,3,3,1,,,,,,,,,,,,,,,,,,,f,1,0.28248041681945324,,,,,,,,,,,,,,,,,,,,,,,,,,,,,,,102,001,2021_Sep_20_1516,joplin1,2021.2.3,59.6183233085759,
_train_cond.csv,1 1 0 0 0 0 0 0 1 1,6,categoryA,f,,,0,7,7,0,0,4,4,6,,,,,,,,,,,,,,,,,,,f,1,0.6278064160142094,,,,,,,,,,,,,,,,,,,,,,,,,,,,,,,102,001,2021_Sep_20_1516,joplin1,2021.2.3,59.6183233085759,
_train_cond.csv,0 0 1 1 1 1 1 1 0 0,4,categoryB,j,,,0,7,7,0,0,5,5,13,,,,,,,,,,,,,,,,,,,j,1,0.7425374588929117,,,,,,,,,,,,,,,,,,,,,,,,,,,,,,,102,001,2021_Sep_20_1516,joplin1,2021.2.3,59.6183233085759,
_train_cond.csv,1 0 1 1 1 1 1 1 0 1,2,categoryB,j,,,0,7,7,0,0,6,6,8,,,,,,,,,,,,,,,,,,,f,0,0.5116510419175029,,,,,,,,,,,,,,,,,,,,,,,,,,,,,,,102,001,2021_Sep_20_1516,joplin1,2021.2.3,59.6183233085759,
_train_cond.csv,1 1 1 0 1 1 0 1 1 1,2,categoryB,j,,,0,7,7,0,0,7,7,11,,,,,,,,,,,,,,,,,,,f,0,0.464266458991915,,,,,,,,,,,,,,,,,,,,,,,,,,,,,,,102,001,2021_Sep_20_1516,joplin1,2021.2.3,59.6183233085759,
_train_cond.csv,1 1 0 1 0 0 1 0 1 1,4,categoryB,j,,,0,7,7,0,0,8,8,9,,,,,,,,,,,,,,,,,,,j,1,0.4913299160543829,,,,,,,,,,,,,,,,,,,,,,,,,,,,,,,102,001,2021_Sep_20_1516,joplin1,2021.2.3,59.6183233085759,
_train_cond.csv,0 1 1 1 1 1 1 1 1 0,2,categoryB,j,,,0,7,7,0,0,9,9,7,,,,,,,,,,,,,,,,,,,j,1,0.38187045813538134,,,,,,,,,,,,,,,,,,,,,,,,,,,,,,,102,001,2021_Sep_20_1516,joplin1,2021.2.3,59.6183233085759,
_train_cond.csv,0 0 1 0 0 0 0 1 0 0,8,categoryA,f,,,0,7,7,0,0,10,10,5,,,,,,,,,,,,,,,,,,,j,0,0.6049987499136478,,,,,,,,,,,,,,,,,,,,,,,,,,,,,,,102,001,2021_Sep_20_1516,joplin1,2021.2.3,59.6183233085759,
_train_cond.csv,1 1 0 1 1 1 1 0 1 1,2,categoryB,j,,,0,7,7,0,0,11,11,12,,,,,,,,,,,,,,,,,,,f,0,0.48102424992248416,,,,,,,,,,,,,,,,,,,,,,,,,,,,,,,102,001,2021_Sep_20_1516,joplin1,2021.2.3,59.6183233085759,
_train_cond.csv,1 0 0 0 0 0 0 0 0 1,8,categoryA,f,,,0,7,7,0,0,12,12,0,,,,,,,,,,,,,,,,,,,None,0,,,,,,,,,,,,,,,,,,,,,,,,,,,,,,,,102,001,2021_Sep_20_1516,joplin1,2021.2.3,59.6183233085759,
_train_cond.csv,0 0 0 1 1 1 1 0 0 0,6,categoryA,f,,,0,7,7,0,0,13,13,3,,,,,,,,,,,,,,,,,,,j,0,0.3049300001002848,,,,,,,,,,,,,,,,,,,,,,,,,,,,,,,102,001,2021_Sep_20_1516,joplin1,2021.2.3,59.6183233085759,
_train_cond.csv,0 1 0 0 0 0 0 0 1 0,8,categoryA,f,,,0,7,7,0,1,0,14,1,,,,,,,,,,,,,,,,,,,f,1,0.5927645419724286,,,,,,,,,,,,,,,,,,,,,,,,,,,,,,,102,001,2021_Sep_20_1516,joplin1,2021.2.3,59.6183233085759,
_train_cond.csv,1 1 1 0 0 0 0 1 1 1,4,categoryB,j,,,0,7,7,0,1,1,15,10,,,,,,,,,,,,,,,,,,,f,0,0.47117891698144376,,,,,,,,,,,,,,,,,,,,,,,,,,,,,,,102,001,2021_Sep_20_1516,joplin1,2021.2.3,59.6183233085759,
_train_cond.csv,0 0 1 0 1 1 0 1 0 0,6,categoryA,f,,,0,7,7,0,1,2,16,2,,,,,,,,,,,,,,,,,,,j,0,0.4667064999230206,,,,,,,,,,,,,,,,,,,,,,,,,,,,,,,102,001,2021_Sep_20_1516,joplin1,2021.2.3,59.6183233085759,
_train_cond.csv,0 0 1 0 0 0 0 1 0 0,8,categoryA,f,,,0,7,7,0,1,3,17,5,,,,,,,,,,,,,,,,,,,f,1,0.5967747499234974,,,,,,,,,,,,,,,,,,,,,,,,,,,,,,,102,001,2021_Sep_20_1516,joplin1,2021.2.3,59.6183233085759,
_train_cond.csv,1 1 0 1 0 0 1 0 1 1,4,categoryB,j,,,0,7,7,0,1,4,18,9,,,,,,,,,,,,,,,,,,,f,0,0.5135220421943814,,,,,,,,,,,,,,,,,,,,,,,,,,,,,,,102,001,2021_Sep_20_1516,joplin1,2021.2.3,59.6183233085759,
_train_cond.csv,0 0 0 1 0 0 1 0 0 0,8,categoryA,f,,,0,7,7,0,1,5,19,4,,,,,,,,,,,,,,,,,,,j,0,0.3697007910814136,,,,,,,,,,,,,,,,,,,,,,,,,,,,,,,102,001,2021_Sep_20_1516,joplin1,2021.2.3,59.6183233085759,
_train_cond.csv,0 0 1 1 1 1 1 1 0 0,4,categoryB,j,,,0,7,7,0,1,6,20,13,,,,,,,,,,,,,,,,,,,f,0,0.6157239170279354,,,,,,,,,,,,,,,,,,,,,,,,,,,,,,,102,001,2021_Sep_20_1516,joplin1,2021.2.3,59.6183233085759,
_train_cond.csv,1 1 0 0 0 0 0 0 1 1,6,categoryA,f,,,0,7,7,0,1,7,21,6,,,,,,,,,,,,,,,,,,,f,1,0.5163028750102967,,,,,,,,,,,,,,,,,,,,,,,,,,,,,,,102,001,2021_Sep_20_1516,joplin1,2021.2.3,59.6183233085759,
_train_cond.csv,0 1 1 1 1 1 1 1 1 0,2,categoryB,j,,,0,7,7,0,1,8,22,7,,,,,,,,,,,,,,,,,,,f,0,0.41461450001224875,,,,,,,,,,,,,,,,,,,,,,,,,,,,,,,102,001,2021_Sep_20_1516,joplin1,2021.2.3,59.6183233085759,
_train_cond.csv,0 0 0 1 1 1 1 0 0 0,6,categoryA,f,,,0,7,7,0,1,9,23,3,,,,,,,,,,,,,,,,,,,j,0,0.29902866715565324,,,,,,,,,,,,,,,,,,,,,,,,,,,,,,,102,001,2021_Sep_20_1516,joplin1,2021.2.3,59.6183233085759,
_train_cond.csv,1 1 0 1 1 1 1 0 1 1,2,categoryB,j,,,0,7,7,0,1,10,24,12,,,,,,,,,,,,,,,,,,,f,0,0.35580975003540516,,,,,,,,,,,,,,,,,,,,,,,,,,,,,,,102,001,2021_Sep_20_1516,joplin1,2021.2.3,59.6183233085759,
_train_cond.csv,1 0 1 1 1 1 1 1 0 1,2,categoryB,j,,,0,7,7,0,1,11,25,8,,,,,,,,,,,,,,,,,,,f,0,0.7150624999776483,,,,,,,,,,,,,,,,,,,,,,,,,,,,,,,102,001,2021_Sep_20_1516,joplin1,2021.2.3,59.6183233085759,
_train_cond.csv,1 1 1 0 1 1 0 1 1 1,2,categoryB,j,,,0,7,7,0,1,12,26,11,,,,,,,,,,,,,,,,,,,j,1,0.5705044160131365,,,,,,,,,,,,,,,,,,,,,,,,,,,,,,,102,001,2021_Sep_20_1516,joplin1,2021.2.3,59.6183233085759,
_train_cond.csv,1 0 0 0 0 0 0 0 0 1,8,categoryA,f,,,0,7,7,0,1,13,27,0,,,,,,,,,,,,,,,,,,,j,0,0.0641394171398133,,,,,,,,,,,,,,,,,,,,,,,,,,,,,,,102,001,2021_Sep_20_1516,joplin1,2021.2.3,59.6183233085759,
_train_cond.csv,0 0 1 1 1 1 1 1 0 0,4,categoryB,j,,,0,7,7,0,2,0,28,13,,,,,,,,,,,,,,,,,,,f,0,0.555263000074774,,,,,,,,,,,,,,,,,,,,,,,,,,,,,,,102,001,2021_Sep_20_1516,joplin1,2021.2.3,59.6183233085759,
_train_cond.csv,1 1 0 0 0 0 0 0 1 1,6,categoryA,f,,,0,7,7,0,2,1,29,6,,,,,,,,,,,,,,,,,,,f,1,1.2745201669167727,,,,,,,,,,,,,,,,,,,,,,,,,,,,,,,102,001,2021_Sep_20_1516,joplin1,2021.2.3,59.6183233085759,
_train_cond.csv,1 0 1 1 1 1 1 1 0 1,2,categoryB,j,,,0,7,7,0,2,2,30,8,,,,,,,,,,,,,,,,,,,f,0,0.7410661671310663,,,,,,,,,,,,,,,,,,,,,,,,,,,,,,,102,001,2021_Sep_20_1516,joplin1,2021.2.3,59.6183233085759,
_train_cond.csv,1 0 0 0 0 0 0 0 0 1,8,categoryA,f,,,0,7,7,0,2,3,31,0,,,,,,,,,,,,,,,,,,,f,1,0.701306875096634,,,,,,,,,,,,,,,,,,,,,,,,,,,,,,,102,001,2021_Sep_20_1516,joplin1,2021.2.3,59.6183233085759,
_train_cond.csv,1 1 1 0 1 1 0 1 1 1,2,categoryB,j,,,0,7,7,0,2,4,32,11,,,,,,,,,,,,,,,,,,,j,1,0.4866270001512021,,,,,,,,,,,,,,,,,,,,,,,,,,,,,,,102,001,2021_Sep_20_1516,joplin1,2021.2.3,59.6183233085759,
_train_cond.csv,0 0 0 1 0 0 1 0 0 0,8,categoryA,f,,,0,7,7,0,2,5,33,4,,,,,,,,,,,,,,,,,,,j,0,0.4321927500423044,,,,,,,,,,,,,,,,,,,,,,,,,,,,,,,102,001,2021_Sep_20_1516,joplin1,2021.2.3,59.6183233085759,
_train_cond.csv,0 1 0 0 0 0 0 0 1 0,8,categoryA,f,,,0,7,7,0,2,6,34,1,,,,,,,,,,,,,,,,,,,f,1,0.18767250003293157,,,,,,,,,,,,,,,,,,,,,,,,,,,,,,,102,001,2021_Sep_20_1516,joplin1,2021.2.3,59.6183233085759,
_train_cond.csv,1 1 0 1 0 0 1 0 1 1,4,categoryB,j,,,0,7,7,0,2,7,35,9,,,,,,,,,,,,,,,,,,,j,1,1.0340013748500496,,,,,,,,,,,,,,,,,,,,,,,,,,,,,,,102,001,2021_Sep_20_1516,joplin1,2021.2.3,59.6183233085759,
_train_cond.csv,0 0 1 0 1 1 0 1 0 0,6,categoryA,f,,,0,7,7,0,2,8,36,2,,,,,,,,,,,,,,,,,,,j,0,0.8706153340172023,,,,,,,,,,,,,,,,,,,,,,,,,,,,,,,102,001,2021_Sep_20_1516,joplin1,2021.2.3,59.6183233085759,
_train_cond.csv,1 1 1 0 0 0 0 1 1 1,4,categoryB,j,,,0,7,7,0,2,9,37,10,,,,,,,,,,,,,,,,,,,f,0,0.6096023330464959,,,,,,,,,,,,,,,,,,,,,,,,,,,,,,,102,001,2021_Sep_20_1516,joplin1,2021.2.3,59.6183233085759,
_train_cond.csv,0 1 1 1 1 1 1 1 1 0,2,categoryB,j,,,0,7,7,0,2,10,38,7,,,,,,,,,,,,,,,,,,,f,0,0.2586887499783188,,,,,,,,,,,,,,,,,,,,,,,,,,,,,,,102,001,2021_Sep_20_1516,joplin1,2021.2.3,59.6183233085759,
_train_cond.csv,0 0 0 1 1 1 1 0 0 0,6,categoryA,f,,,0,7,7,0,2,11,39,3,,,,,,,,,,,,,,,,,,,j,0,0.11021533305756748,,,,,,,,,,,,,,,,,,,,,,,,,,,,,,,102,001,2021_Sep_20_1516,joplin1,2021.2.3,59.6183233085759,
_train_cond.csv,0 0 1 0 0 0 0 1 0 0,8,categoryA,f,,,0,7,7,0,2,12,40,5,,,,,,,,,,,,,,,,,,,j,0,0.44767770799808204,,,,,,,,,,,,,,,,,,,,,,,,,,,,,,,102,001,2021_Sep_20_1516,joplin1,2021.2.3,59.6183233085759,
_train_cond.csv,1 1 0 1 1 1 1 0 1 1,2,categoryB,j,,,0,7,7,0,2,13,41,12,,,,,,,,,,,,,,,,,,,f,0,0.3948674579150975,,,,,,,,,,,,,,,,,,,,,,,,,,,,,,,102,001,2021_Sep_20_1516,joplin1,2021.2.3,59.6183233085759,
_train_cond.csv,,,,,,,0,7,7,0,,,,,,,,,,,,,,,,,,,,,,,,,,space,10.056921791983768,,,,,,,,,,,,,,,,,,,,,,,,,,,,,102,001,2021_Sep_20_1516,joplin1,2021.2.3,59.6183233085759,
,,,,,,,,,,,,,,,,,,,,,,,,,,,,,,,,,,,,,,q,45.29627633304335,,,,,,,,,,,,,,,,,,,,,,,,,,,102,001,2021_Sep_20_1516,joplin1,2021.2.3,59.6183233085759,
,,,,,,,,,,,,,,,,,,,,,,,,,,,,,,,,,,,,,,,,j,10.170846958877519,,,,,,,,,,,,,,,,,,,,,,,,,102,001,2021_Sep_20_1516,joplin1,2021.2.3,59.6183233085759,
,,,,,,,,,,,,,,,,,,,,,,,,,,,,,,,,,,,,,,,,,,space,4.193961957935244,,,,,,,,,,,,,,,,,,,,,,,102,001,2021_Sep_20_1516,joplin1,2021.2.3,59.6183233085759,
,,,,,,,,,,,,,,,,,,,,,,,,,,,,,,,,,,,,,,,,,,,,space,0.8328836250584573,,,,,,,,,,,,,,,,,,,,,102,001,2021_Sep_20_1516,joplin1,2021.2.3,59.6183233085759,
,0 0 0 0 0 0 1 0 0 1,8,categoryA,f,genfile2.csv,0,,,,,,,,,0,0,0,1,0,0,0,21,,,,,,,,,,,,,,,,,,,,,,,,j,0,1.8370074578560889,,,,,,,,,,,,,,,,,,102,001,2021_Sep_20_1516,joplin1,2021.2.3,59.6183233085759,
,1 1 1 0 1 1 0 1 1 1,2,categoryB,j,genfile2.csv,1,,,,,,,,,0,0,0,1,0,1,1,13,,,,,,,,,,,,,,,,,,,,,,,,f,0,0.7528630830347538,,,,,,,,,,,,,,,,,,102,001,2021_Sep_20_1516,joplin1,2021.2.3,59.6183233085759,
,0 0 1 1 1 1 0 1 0 1,4,categoryB,j,genfile2.csv,0,,,,,,,,,0,0,0,1,0,2,2,39,,,,,,,,,,,,,,,,,,,,,,,,f,0,0.652245125034824,,,,,,,,,,,,,,,,,,102,001,2021_Sep_20_1516,joplin1,2021.2.3,59.6183233085759,
,1 1 0 1 0 0 0 0 0 1,6,categoryA,f,genfile2.csv,0,,,,,,,,,0,0,0,1,0,3,3,33,,,,,,,,,,,,,,,,,,,,,,,,f,1,0.4220546658616513,,,,,,,,,,,,,,,,,,102,001,2021_Sep_20_1516,joplin1,2021.2.3,59.6183233085759,
,1 0 0 1 0 0 0 0 0 0,8,categoryA,f,genfile2.csv,0,,,,,,,,,0,0,0,1,0,4,4,22,,,,,,,,,,,,,,,,,,,,,,,,j,0,0.5858725837897509,,,,,,,,,,,,,,,,,,102,001,2021_Sep_20_1516,joplin1,2021.2.3,59.6183233085759,
,0 1 1 1 0 0 1 1 1 1,3,categoryB,j,genfile2.csv,0,,,,,,,,,0,0,0,1,0,5,5,45,,,,,,,,,,,,,,,,,,,,,,,,j,1,0.34838537499308586,,,,,,,,,,,,,,,,,,102,001,2021_Sep_20_1516,joplin1,2021.2.3,59.6183233085759,
,1 0 1 1 1 1 1 1 1 1,1,categoryB,j,genfile2.csv,0,,,,,,,,,0,0,0,1,0,6,6,51,,,,,,,,,,,,,,,,,,,,,,,,f,0,0.5309597500599921,,,,,,,,,,,,,,,,,,102,001,2021_Sep_20_1516,joplin1,2021.2.3,59.6183233085759,
,0 0 0 0 0 0 0 0 0 0,10,categoryA,f,genfile2.csv,0,,,,,,,,,0,0,0,1,0,7,7,0,,,,,,,,,,,,,,,,,,,,,,,,f,1,0.5272561670280993,,,,,,,,,,,,,,,,,,102,001,2021_Sep_20_1516,joplin1,2021.2.3,59.6183233085759,
,0 0 1 0 1 1 0 0 1 0,6,categoryA,f,genfile2.csv,0,,,,,,,,,0,0,0,1,0,8,8,32,,,,,,,,,,,,,,,,,,,,,,,,j,0,0.40689508290961385,,,,,,,,,,,,,,,,,,102,001,2021_Sep_20_1516,joplin1,2021.2.3,59.6183233085759,
,0 1 0 0 0 0 0 0 0 0,9,categoryA,f,genfile2.csv,0,,,,,,,,,0,0,0,1,0,9,9,20,,,,,,,,,,,,,,,,,,,,,,,,f,1,0.6338359171058983,,,,,,,,,,,,,,,,,,102,001,2021_Sep_20_1516,joplin1,2021.2.3,59.6183233085759,
,0 0 0 1 1 1 1 0 0 0,6,categoryA,f,genfile2.csv,1,,,,,,,,,0,0,0,1,0,10,10,5,,,,,,,,,,,,,,,,,,,,,,,,j,0,0.19891954096965492,,,,,,,,,,,,,,,,,,102,001,2021_Sep_20_1516,joplin1,2021.2.3,59.6183233085759,
,0 0 1 1 1 1 1 1 0 0,4,categoryB,j,genfile2.csv,1,,,,,,,,,0,0,0,1,0,11,11,15,,,,,,,,,,,,,,,,,,,,,,,,f,0,0.5085975830443203,,,,,,,,,,,,,,,,,,102,001,2021_Sep_20_1516,joplin1,2021.2.3,59.6183233085759,
,0 0 0 0 0 0 1 1 1 0,7,categoryA,f,genfile2.csv,0,,,,,,,,,0,0,0,1,0,12,12,27,,,,,,,,,,,,,,,,,,,,,,,,f,1,0.6440940839238465,,,,,,,,,,,,,,,,,,102,001,2021_Sep_20_1516,joplin1,2021.2.3,59.6183233085759,
,1 1 0 1 0 0 1 0 1 1,4,categoryB,j,genfile2.csv,1,,,,,,,,,0,0,0,1,0,13,13,11,,,,,,,,,,,,,,,,,,,,,,,,f,0,0.7026083341334015,,,,,,,,,,,,,,,,,,102,001,2021_Sep_20_1516,joplin1,2021.2.3,59.6183233085759,
,1 0 1 1 1 0 0 1 1 0,4,categoryB,j,genfile2.csv,0,,,,,,,,,0,0,0,1,0,14,14,38,,,,,,,,,,,,,,,,,,,,,,,,f,0,0.799587040906772,,,,,,,,,,,,,,,,,,102,001,2021_Sep_20_1516,joplin1,2021.2.3,59.6183233085759,
,0 1 1 1 1 1 1 1 1 0,2,categoryB,j,genfile2.csv,1,,,,,,,,,0,0,0,1,0,15,15,9,,,,,,,,,,,,,,,,,,,,,,,,j,1,0.6062105409801006,,,,,,,,,,,,,,,,,,102,001,2021_Sep_20_1516,joplin1,2021.2.3,59.6183233085759,
,1 0 1 0 1 1 1 1 1 1,2,categoryB,j,genfile2.csv,0,,,,,,,,,0,0,0,1,0,16,16,46,,,,,,,,,,,,,,,,,,,,,,,,j,1,0.3354519580025226,,,,,,,,,,,,,,,,,,102,001,2021_Sep_20_1516,joplin1,2021.2.3,59.6183233085759,
,0 0 1 0 1 0 1 0 0 0,7,categoryA,f,genfile2.csv,0,,,,,,,,,0,0,0,1,0,17,17,28,,,,,,,,,,,,,,,,,,,,,,,,j,0,0.6067145001143217,,,,,,,,,,,,,,,,,,102,001,2021_Sep_20_1516,joplin1,2021.2.3,59.6183233085759,
,1 1 0 0 0 1 1 0 1 1,4,categoryB,j,genfile2.csv,0,,,,,,,,,0,0,0,1,0,18,18,36,,,,,,,,,,,,,,,,,,,,,,,,f,0,1.3094776668585837,,,,,,,,,,,,,,,,,,102,001,2021_Sep_20_1516,joplin1,2021.2.3,59.6183233085759,
,1 1 1 1 1 0 0 1 1 1,2,categoryB,j,genfile2.csv,0,,,,,,,,,0,0,0,1,0,19,19,47,,,,,,,,,,,,,,,,,,,,,,,,f,0,0.45157149992883205,,,,,,,,,,,,,,,,,,102,001,2021_Sep_20_1516,joplin1,2021.2.3,59.6183233085759,
,1 0 1 1 1 1 1 1 0 1,2,categoryB,j,genfile2.csv,1,,,,,,,,,0,0,0,1,0,20,20,10,,,,,,,,,,,,,,,,,,,,,,,,f,0,0.7038353339303285,,,,,,,,,,,,,,,,,,102,001,2021_Sep_20_1516,joplin1,2021.2.3,59.6183233085759,
,0 1 1 0 1 1 0 1 1 0,4,categoryB,j,genfile2.csv,0,,,,,,,,,0,0,0,1,0,21,21,37,,,,,,,,,,,,,,,,,,,,,,,,f,0,0.41232591681182384,,,,,,,,,,,,,,,,,,102,001,2021_Sep_20_1516,joplin1,2021.2.3,59.6183233085759,
,0 0 1 0 0 0 0 0 0 0,9,categoryA,f,genfile2.csv,0,,,,,,,,,0,0,0,1,0,22,22,17,,,,,,,,,,,,,,,,,,,,,,,,f,1,0.4328371670562774,,,,,,,,,,,,,,,,,,102,001,2021_Sep_20_1516,joplin1,2021.2.3,59.6183233085759,
,0 0 0 0 0 0 0 0 1 0,9,categoryA,f,genfile2.csv,0,,,,,,,,,0,0,0,1,0,23,23,19,,,,,,,,,,,,,,,,,,,,,,,,f,1,0.43233516602776945,,,,,,,,,,,,,,,,,,102,001,2021_Sep_20_1516,joplin1,2021.2.3,59.6183233085759,
,0 0 1 0 0 0 0 1 0 0,8,categoryA,f,genfile2.csv,1,,,,,,,,,0,0,0,1,0,24,24,7,,,,,,,,,,,,,,,,,,,,,,,,j,0,0.4304427499882877,,,,,,,,,,,,,,,,,,102,001,2021_Sep_20_1516,joplin1,2021.2.3,59.6183233085759,
,1 1 1 0 0 0 0 0 1 0,6,categoryA,f,genfile2.csv,0,,,,,,,,,0,0,0,1,0,25,25,34,,,,,,,,,,,,,,,,,,,,,,,,j,0,0.08880045800469816,,,,,,,,,,,,,,,,,,102,001,2021_Sep_20_1516,joplin1,2021.2.3,59.6183233085759,
,1 1 1 0 1 1 1 1 1 1,1,categoryB,j,genfile2.csv,0,,,,,,,,,0,0,0,1,0,26,26,54,,,,,,,,,,,,,,,,,,,,,,,,f,0,0.34367158310487866,,,,,,,,,,,,,,,,,,102,001,2021_Sep_20_1516,joplin1,2021.2.3,59.6183233085759,
,1 1 0 0 0 0 0 0 1 1,6,categoryA,f,genfile2.csv,1,,,,,,,,,0,0,0,1,0,27,27,8,,,,,,,,,,,,,,,,,,,,,,,,f,1,0.42433587508276105,,,,,,,,,,,,,,,,,,102,001,2021_Sep_20_1516,joplin1,2021.2.3,59.6183233085759,
,1 1 1 1 1 1 0 1 1 1,1,categoryB,j,genfile2.csv,0,,,,,,,,,0,0,0,1,0,28,28,52,,,,,,,,,,,,,,,,,,,,,,,,j,1,0.2916129590012133,,,,,,,,,,,,,,,,,,102,001,2021_Sep_20_1516,joplin1,2021.2.3,59.6183233085759,
,1 1 1 1 1 0 1 1 1 1,1,categoryB,j,genfile2.csv,0,,,,,,,,,0,0,0,1,0,29,29,55,,,,,,,,,,,,,,,,,,,,,,,,f,0,0.41976829105988145,,,,,,,,,,,,,,,,,,102,001,2021_Sep_20_1516,joplin1,2021.2.3,59.6183233085759,
,1 0 1 1 1 1 1 1 0 0,3,categoryB,j,genfile2.csv,0,,,,,,,,,0,0,0,1,0,30,30,42,,,,,,,,,,,,,,,,,,,,,,,,f,0,0.519656749907881,,,,,,,,,,,,,,,,,,102,001,2021_Sep_20_1516,joplin1,2021.2.3,59.6183233085759,
,0 0 0 0 0 0 0 1 1 0,8,categoryA,f,genfile2.csv,0,,,,,,,,,0,0,0,1,0,31,31,24,,,,,,,,,,,,,,,,,,,,,,,,f,1,0.8864042500499636,,,,,,,,,,,,,,,,,,102,001,2021_Sep_20_1516,joplin1,2021.2.3,59.6183233085759,
,0 1 0 0 0 0 0 0 1 0,8,categoryA,f,genfile2.csv,1,,,,,,,,,0,0,0,1,0,32,32,3,,,,,,,,,,,,,,,,,,,,,,,,f,1,0.39216454210691154,,,,,,,,,,,,,,,,,,102,001,2021_Sep_20_1516,joplin1,2021.2.3,59.6183233085759,
,0 0 0 0 0 1 0 0 1 0,8,categoryA,f,genfile2.csv,0,,,,,,,,,0,0,0,1,0,33,33,25,,,,,,,,,,,,,,,,,,,,,,,,f,1,0.5805576671846211,,,,,,,,,,,,,,,,,,102,001,2021_Sep_20_1516,joplin1,2021.2.3,59.6183233085759,
,0 1 1 0 1 0 1 1 0 1,4,categoryB,j,genfile2.csv,0,,,,,,,,,0,0,0,1,0,34,34,40,,,,,,,,,,,,,,,,,,,,,,,,j,1,0.4023347911424935,,,,,,,,,,,,,,,,,,102,001,2021_Sep_20_1516,joplin1,2021.2.3,59.6183233085759,
,1 0 0 0 1 0 0 0 0 0,8,categoryA,f,genfile2.csv,0,,,,,,,,,0,0,0,1,0,35,35,23,,,,,,,,,,,,,,,,,,,,,,,,j,0,0.25902966712601483,,,,,,,,,,,,,,,,,,102,001,2021_Sep_20_1516,joplin1,2021.2.3,59.6183233085759,
,0 0 1 0 1 1 0 1 0 0,6,categoryA,f,genfile2.csv,1,,,,,,,,,0,0,0,1,0,36,36,4,,,,,,,,,,,,,,,,,,,,,,,,f,1,0.5442877919413149,,,,,,,,,,,,,,,,,,102,001,2021_Sep_20_1516,joplin1,2021.2.3,59.6183233085759,
,1 1 1 0 1 1 1 1 1 0,2,categoryB,j,genfile2.csv,0,,,,,,,,,0,0,0,1,0,37,37,48,,,,,,,,,,,,,,,,,,,,,,,,f,0,0.014676917111501098,,,,,,,,,,,,,,,,,,102,001,2021_Sep_20_1516,joplin1,2021.2.3,59.6183233085759,
,0 0 0 1 0 0 0 0 0 0,9,categoryA,f,genfile2.csv,0,,,,,,,,,0,0,0,1,0,38,38,16,,,,,,,,,,,,,,,,,,,,,,,,j,0,0.306392417056486,,,,,,,,,,,,,,,,,,102,001,2021_Sep_20_1516,joplin1,2021.2.3,59.6183233085759,
,1 0 1 0 1 1 1 1 1 0,3,categoryB,j,genfile2.csv,0,,,,,,,,,0,0,0,1,0,39,39,43,,,,,,,,,,,,,,,,,,,,,,,,f,0,0.4981749998405576,,,,,,,,,,,,,,,,,,102,001,2021_Sep_20_1516,joplin1,2021.2.3,59.6183233085759,
,1 1 1 1 1 1 1 1 1 1,0,categoryB,j,genfile2.csv,0,,,,,,,,,0,0,0,1,0,40,40,1,,,,,,,,,,,,,,,,,,,,,,,,j,1,0.5873620000202209,,,,,,,,,,,,,,,,,,102,001,2021_Sep_20_1516,joplin1,2021.2.3,59.6183233085759,
,1 1 1 0 0 0 0 1 1 1,4,categoryB,j,genfile2.csv,1,,,,,,,,,0,0,0,1,0,41,41,12,,,,,,,,,,,,,,,,,,,,,,,,j,1,0.3769340000580996,,,,,,,,,,,,,,,,,,102,001,2021_Sep_20_1516,joplin1,2021.2.3,59.6183233085759,
,1 1 0 1 1 1 1 0 1 1,2,categoryB,j,genfile2.csv,1,,,,,,,,,0,0,0,1,0,42,42,14,,,,,,,,,,,,,,,,,,,,,,,,j,1,0.4406095000449568,,,,,,,,,,,,,,,,,,102,001,2021_Sep_20_1516,joplin1,2021.2.3,59.6183233085759,
,1 0 0 1 1 1 1 0 1 1,3,categoryB,j,genfile2.csv,0,,,,,,,,,0,0,0,1,0,43,43,41,,,,,,,,,,,,,,,,,,,,,,,,f,0,0.6268715411424637,,,,,,,,,,,,,,,,,,102,001,2021_Sep_20_1516,joplin1,2021.2.3,59.6183233085759,
,1 1 1 1 1 1 1 1 1 0,1,categoryB,j,genfile2.csv,0,,,,,,,,,0,0,0,1,0,44,44,53,,,,,,,,,,,,,,,,,,,,,,,,f,0,0.8300670420285314,,,,,,,,,,,,,,,,,,102,001,2021_Sep_20_1516,joplin1,2021.2.3,59.6183233085759,
,0 0 0 0 0 1 0 0 0 0,9,categoryA,f,genfile2.csv,0,,,,,,,,,0,0,0,1,0,45,45,18,,,,,,,,,,,,,,,,,,,,,,,,j,0,0.43308770819567144,,,,,,,,,,,,,,,,,,102,001,2021_Sep_20_1516,joplin1,2021.2.3,59.6183233085759,
,0 0 0 0 0 1 1 1 0 1,6,categoryA,f,genfile2.csv,0,,,,,,,,,0,0,0,1,0,46,46,31,,,,,,,,,,,,,,,,,,,,,,,,f,1,0.9557769589591771,,,,,,,,,,,,,,,,,,102,001,2021_Sep_20_1516,joplin1,2021.2.3,59.6183233085759,
,0 0 0 1 1 0 1 0 0 0,7,categoryA,f,genfile2.csv,0,,,,,,,,,0,0,0,1,0,47,47,30,,,,,,,,,,,,,,,,,,,,,,,,f,1,0.7138751249294728,,,,,,,,,,,,,,,,,,102,001,2021_Sep_20_1516,joplin1,2021.2.3,59.6183233085759,
,0 1 1 1 1 1 0 1 1 1,2,categoryB,j,genfile2.csv,0,,,,,,,,,0,0,0,1,0,48,48,50,,,,,,,,,,,,,,,,,,,,,,,,f,0,0.7536701660137624,,,,,,,,,,,,,,,,,,102,001,2021_Sep_20_1516,joplin1,2021.2.3,59.6183233085759,
,0 0 0 1 0 0 1 0 0 0,8,categoryA,f,genfile2.csv,1,,,,,,,,,0,0,0,1,0,49,49,6,,,,,,,,,,,,,,,,,,,,,,,,j,0,0.3843052920419723,,,,,,,,,,,,,,,,,,102,001,2021_Sep_20_1516,joplin1,2021.2.3,59.6183233085759,
,1 1 1 0 0 1 1 1 0 1,3,categoryB,j,genfile2.csv,0,,,,,,,,,0,0,0,1,0,50,50,44,,,,,,,,,,,,,,,,,,,,,,,,j,1,0.35769691690802574,,,,,,,,,,,,,,,,,,102,001,2021_Sep_20_1516,joplin1,2021.2.3,59.6183233085759,
,1 0 0 0 0 0 0 0 0 1,8,categoryA,f,genfile2.csv,1,,,,,,,,,0,0,0,1,0,51,51,2,,,,,,,,,,,,,,,,,,,,,,,,j,0,0.8929813329596072,,,,,,,,,,,,,,,,,,102,001,2021_Sep_20_1516,joplin1,2021.2.3,59.6183233085759,
,1 1 1 0 0 1 1 1 1 1,2,categoryB,j,genfile2.csv,0,,,,,,,,,0,0,0,1,0,52,52,49,,,,,,,,,,,,,,,,,,,,,,,,j,1,0.5896389589179307,,,,,,,,,,,,,,,,,,102,001,2021_Sep_20_1516,joplin1,2021.2.3,59.6183233085759,
,0 1 0 1 0 0 1 0 0 0,7,categoryA,f,genfile2.csv,0,,,,,,,,,0,0,0,1,0,53,53,26,,,,,,,,,,,,,,,,,,,,,,,,j,0,0.6102536658290774,,,,,,,,,,,,,,,,,,102,001,2021_Sep_20_1516,joplin1,2021.2.3,59.6183233085759,
,1 0 1 1 0 0 1 0 0 0,6,categoryA,f,genfile2.csv,0,,,,,,,,,0,0,0,1,0,54,54,35,,,,,,,,,,,,,,,,,,,,,,,,j,0,0.7581838329788297,,,,,,,,,,,,,,,,,,102,001,2021_Sep_20_1516,joplin1,2021.2.3,59.6183233085759,
,0 0 1 0 0 1 0 0 1 0,7,categoryA,f,genfile2.csv,0,,,,,,,,,0,0,0,1,0,55,55,29,,,,,,,,,,,,,,,,,,,,,,,,j,0,0.5128255831077695,,,,,,,,,,,,,,,,,,102,001,2021_Sep_20_1516,joplin1,2021.2.3,59.6183233085759,
,,,,,genfile2.csv,,,,,,,,,,0,0,0,1,,,,,,,,,,,,,,,,,,space,7.651232165982947,,,,,,,,,,,,,,,,,,,,,,,,,,,,,102,001,2021_Sep_20_1516,joplin1,2021.2.3,59.6183233085759,
,1 0 1 1 0 0 0 1 1 1,4,categoryB,j,genfile1.csv,0,,,,,,,,,0,1,1,0,0,0,0,36,,,,,,,,,,,,,,,,,,,,,,,,f,0,0.8018549999687821,,,,,,,,,,,,,,,,,,102,001,2021_Sep_20_1516,joplin1,2021.2.3,59.6183233085759,
,1 0 1 1 1 1 1 1 0 1,2,categoryB,j,genfile1.csv,1,,,,,,,,,0,1,1,0,0,1,1,10,,,,,,,,,,,,,,,,,,,,,,,,j,1,0.7497499170713127,,,,,,,,,,,,,,,,,,102,001,2021_Sep_20_1516,joplin1,2021.2.3,59.6183233085759,
,0 0 0 1 0 0 1 0 0 0,8,categoryA,f,genfile1.csv,1,,,,,,,,,0,1,1,0,0,2,2,6,,,,,,,,,,,,,,,,,,,,,,,,j,0,0.3424637501593679,,,,,,,,,,,,,,,,,,102,001,2021_Sep_20_1516,joplin1,2021.2.3,59.6183233085759,
,1 1 0 1 0 0 1 0 1 1,4,categoryB,j,genfile1.csv,1,,,,,,,,,0,1,1,0,0,3,3,11,,,,,,,,,,,,,,,,,,,,,,,,f,0,0.3818717079702765,,,,,,,,,,,,,,,,,,102,001,2021_Sep_20_1516,joplin1,2021.2.3,59.6183233085759,
,0 0 0 1 1 1 1 0 0 0,6,categoryA,f,genfile1.csv,1,,,,,,,,,0,1,1,0,0,4,4,5,,,,,,,,,,,,,,,,,,,,,,,,j,0,0.46851258398965,,,,,,,,,,,,,,,,,,102,001,2021_Sep_20_1516,joplin1,2021.2.3,59.6183233085759,
,0 0 0 1 0 0 0 0 1 0,8,categoryA,f,genfile1.csv,0,,,,,,,,,0,1,1,0,0,5,5,22,,,,,,,,,,,,,,,,,,,,,,,,f,1,0.3229216658510268,,,,,,,,,,,,,,,,,,102,001,2021_Sep_20_1516,joplin1,2021.2.3,59.6183233085759,
,1 1 1 0 1 1 1 0 1 1,2,categoryB,j,genfile1.csv,0,,,,,,,,,0,1,1,0,0,6,6,47,,,,,,,,,,,,,,,,,,,,,,,,f,0,0.8019752497784793,,,,,,,,,,,,,,,,,,102,001,2021_Sep_20_1516,joplin1,2021.2.3,59.6183233085759,
,0 1 0 0 0 0 0 1 0 1,7,categoryA,f,genfile1.csv,0,,,,,,,,,0,1,1,0,0,7,7,26,,,,,,,,,,,,,,,,,,,,,,,,j,0,0.5734371668659151,,,,,,,,,,,,,,,,,,102,001,2021_Sep_20_1516,joplin1,2021.2.3,59.6183233085759,
,0 1 0 1 0 0 0 0 0 0,8,categoryA,f,genfile1.csv,0,,,,,,,,,0,1,1,0,0,8,8,21,,,,,,,,,,,,,,,,,,,,,,,,j,0,0.5935800410807133,,,,,,,,,,,,,,,,,,102,001,2021_Sep_20_1516,joplin1,2021.2.3,59.6183233085759,
,1 1 1 1 0 1 0 0 1 1,3,categoryB,j,genfile1.csv,0,,,,,,,,,0,1,1,0,0,9,9,45,,,,,,,,,,,,,,,,,,,,,,,,j,1,0.5989421249832958,,,,,,,,,,,,,,,,,,102,001,2021_Sep_20_1516,joplin1,2021.2.3,59.6183233085759,
,1 1 1 1 1 0 1 0 1 0,3,categoryB,j,genfile1.csv,0,,,,,,,,,0,1,1,0,0,10,10,44,,,,,,,,,,,,,,,,,,,,,,,,f,0,0.5395952500402927,,,,,,,,,,,,,,,,,,102,001,2021_Sep_20_1516,joplin1,2021.2.3,59.6183233085759,
,1 1 1 1 1 1 1 0 0 1,2,categoryB,j,genfile1.csv,0,,,,,,,,,0,1,1,0,0,11,11,46,,,,,,,,,,,,,,,,,,,,,,,,j,1,0.34601841610856354,,,,,,,,,,,,,,,,,,102,001,2021_Sep_20_1516,joplin1,2021.2.3,59.6183233085759,
,0 0 1 1 1 1 1 1 0 0,4,categoryB,j,genfile1.csv,1,,,,,,,,,0,1,1,0,0,12,12,15,,,,,,,,,,,,,,,,,,,,,,,,f,0,0.7464033751748502,,,,,,,,,,,,,,,,,,102,001,2021_Sep_20_1516,joplin1,2021.2.3,59.6183233085759,
,1 1 1 1 1 1 1 1 1 1,0,categoryB,j,genfile1.csv,0,,,,,,,,,0,1,1,0,0,13,13,1,,,,,,,,,,,,,,,,,,,,,,,,j,1,0.8103291660081595,,,,,,,,,,,,,,,,,,102,001,2021_Sep_20_1516,joplin1,2021.2.3,59.6183233085759,
,0 0 1 1 1 1 1 1 1 0,3,categoryB,j,genfile1.csv,0,,,,,,,,,0,1,1,0,0,14,14,41,,,,,,,,,,,,,,,,,,,,,,,,f,0,0.47023812495172024,,,,,,,,,,,,,,,,,,102,001,2021_Sep_20_1516,joplin1,2021.2.3,59.6183233085759,
,0 1 1 1 1 1 1 1 1 0,2,categoryB,j,genfile1.csv,1,,,,,,,,,0,1,1,0,0,15,15,9,,,,,,,,,,,,,,,,,,,,,,,,f,0,0.6249124580062926,,,,,,,,,,,,,,,,,,102,001,2021_Sep_20_1516,joplin1,2021.2.3,59.6183233085759,
,1 0 0 0 0 0 0 0 0 0,9,categoryA,f,genfile1.csv,0,,,,,,,,,0,1,1,0,0,16,16,16,,,,,,,,,,,,,,,,,,,,,,,,f,1,0.860166042111814,,,,,,,,,,,,,,,,,,102,001,2021_Sep_20_1516,joplin1,2021.2.3,59.6183233085759,
,0 0 1 1 1 1 1 0 0 1,4,categoryB,j,genfile1.csv,0,,,,,,,,,0,1,1,0,0,17,17,37,,,,,,,,,,,,,,,,,,,,,,,,f,0,0.5024588340893388,,,,,,,,,,,,,,,,,,102,001,2021_Sep_20_1516,joplin1,2021.2.3,59.6183233085759,
,1 1 1 1 0 1 1 0 1 0,3,categoryB,j,genfile1.csv,0,,,,,,,,,0,1,1,0,0,18,18,42,,,,,,,,,,,,,,,,,,,,,,,,j,1,0.4382891249842942,,,,,,,,,,,,,,,,,,102,001,2021_Sep_20_1516,joplin1,2021.2.3,59.6183233085759,
,1 1 1 0 0 0 0 1 1 1,4,categoryB,j,genfile1.csv,1,,,,,,,,,0,1,1,0,0,19,19,12,,,,,,,,,,,,,,,,,,,,,,,,j,1,0.473513042088598,,,,,,,,,,,,,,,,,,102,001,2021_Sep_20_1516,joplin1,2021.2.3,59.6183233085759,
,1 1 0 1 1 1 0 1 0 0,4,categoryB,j,genfile1.csv,0,,,,,,,,,0,1,1,0,0,20,20,38,,,,,,,,,,,,,,,,,,,,,,,,f,0,0.8047822921071202,,,,,,,,,,,,,,,,,,102,001,2021_Sep_20_1516,joplin1,2021.2.3,59.6183233085759,
,0 0 0 0 1 0 0 1 1 0,7,categoryA,f,genfile1.csv,0,,,,,,,,,0,1,1,0,0,21,21,29,,,,,,,,,,,,,,,,,,,,,,,,f,1,0.19085233402438462,,,,,,,,,,,,,,,,,,102,001,2021_Sep_20_1516,joplin1,2021.2.3,59.6183233085759,
,0 0 1 0 0 1 0 1 1 0,6,categoryA,f,genfile1.csv,0,,,,,,,,,0,1,1,0,0,22,22,35,,,,,,,,,,,,,,,,,,,,,,,,j,0,0.06793508306145668,,,,,,,,,,,,,,,,,,102,001,2021_Sep_20_1516,joplin1,2021.2.3,59.6183233085759,
,0 0 1 0 0 1 0 1 0 0,7,categoryA,f,genfile1.csv,0,,,,,,,,,0,1,1,0,0,23,23,27,,,,,,,,,,,,,,,,,,,,,,,,j,0,0.5803461249452084,,,,,,,,,,,,,,,,,,102,001,2021_Sep_20_1516,joplin1,2021.2.3,59.6183233085759,
,0 1 1 0 1 0 1 0 1 1,4,categoryB,j,genfile1.csv,0,,,,,,,,,0,1,1,0,0,24,24,40,,,,,,,,,,,,,,,,,,,,,,,,f,0,0.209403291111812,,,,,,,,,,,,,,,,,,102,001,2021_Sep_20_1516,joplin1,2021.2.3,59.6183233085759,
,0 0 0 0 0 0 1 0 0 0,9,categoryA,f,genfile1.csv,0,,,,,,,,,0,1,1,0,0,25,25,17,,,,,,,,,,,,,,,,,,,,,,,,f,1,0.5936302079353482,,,,,,,,,,,,,,,,,,102,001,2021_Sep_20_1516,joplin1,2021.2.3,59.6183233085759,
,0 1 1 0 0 0 0 1 0 1,6,categoryA,f,genfile1.csv,0,,,,,,,,,0,1,1,0,0,26,26,32,,,,,,,,,,,,,,,,,,,,,,,,j,0,0.1660857500974089,,,,,,,,,,,,,,,,,,102,001,2021_Sep_20_1516,joplin1,2021.2.3,59.6183233085759,
,1 0 0 1 1 0 1 0 0 0,6,categoryA,f,genfile1.csv,0,,,,,,,,,0,1,1,0,0,27,27,34,,,,,,,,,,,,,,,,,,,,,,,,f,1,0.33178233285434544,,,,,,,,,,,,,,,,,,102,001,2021_Sep_20_1516,joplin1,2021.2.3,59.6183233085759,
,1 1 1 1 0 1 0 1 1 1,2,categoryB,j,genfile1.csv,0,,,,,,,,,0,1,1,0,0,28,28,50,,,,,,,,,,,,,,,,,,,,,,,,f,0,0.44357712497003376,,,,,,,,,,,,,,,,,,102,001,2021_Sep_20_1516,joplin1,2021.2.3,59.6183233085759,
,0 0 0 0 0 0 0 0 0 1,9,categoryA,f,genfile1.csv,0,,,,,,,,,0,1,1,0,0,29,29,18,,,,,,,,,,,,,,,,,,,,,,,,f,1,0.4778887080028653,,,,,,,,,,,,,,,,,,102,001,2021_Sep_20_1516,joplin1,2021.2.3,59.6183233085759,
,1 0 0 1 0 0 0 0 1 0,7,categoryA,f,genfile1.csv,0,,,,,,,,,0,1,1,0,0,30,30,30,,,,,,,,,,,,,,,,,,,,,,,,j,0,0.5417476668953896,,,,,,,,,,,,,,,,,,102,001,2021_Sep_20_1516,joplin1,2021.2.3,59.6183233085759,
,0 0 0 0 0 0 0 0 0 0,10,categoryA,f,genfile1.csv,0,,,,,,,,,0,1,1,0,0,31,31,0,,,,,,,,,,,,,,,,,,,,,,,,j,0,0.5321182499174029,,,,,,,,,,,,,,,,,,102,001,2021_Sep_20_1516,joplin1,2021.2.3,59.6183233085759,
,0 1 0 0 0 0 0 0 1 0,8,categoryA,f,genfile1.csv,1,,,,,,,,,0,1,1,0,0,32,32,3,,,,,,,,,,,,,,,,,,,,,,,,f,1,0.5988620000425726,,,,,,,,,,,,,,,,,,102,001,2021_Sep_20_1516,joplin1,2021.2.3,59.6183233085759,
,1 0 1 1 1 1 0 1 0 1,3,categoryB,j,genfile1.csv,0,,,,,,,,,0,1,1,0,0,33,33,43,,,,,,,,,,,,,,,,,,,,,,,,f,0,0.6427176669239998,,,,,,,,,,,,,,,,,,102,001,2021_Sep_20_1516,joplin1,2021.2.3,59.6183233085759,
,0 1 0 1 0 0 0 0 0 1,7,categoryA,f,genfile1.csv,0,,,,,,,,,0,1,1,0,0,34,34,28,,,,,,,,,,,,,,,,,,,,,,,,j,0,0.4050370000768453,,,,,,,,,,,,,,,,,,102,001,2021_Sep_20_1516,joplin1,2021.2.3,59.6183233085759,
,1 1 0 1 1 1 1 0 1 1,2,categoryB,j,genfile1.csv,1,,,,,,,,,0,1,1,0,0,35,35,14,,,,,,,,,,,,,,,,,,,,,,,,j,1,0.5144941669423133,,,,,,,,,,,,,,,,,,102,001,2021_Sep_20_1516,joplin1,2021.2.3,59.6183233085759,
,0 0 0 0 1 0 0 0 0 0,9,categoryA,f,genfile1.csv,0,,,,,,,,,0,1,1,0,0,36,36,19,,,,,,,,,,,,,,,,,,,,,,,,f,1,0.4182187910191715,,,,,,,,,,,,,,,,,,102,001,2021_Sep_20_1516,joplin1,2021.2.3,59.6183233085759,
,0 1 1 1 1 1 1 0 1 1,2,categoryB,j,genfile1.csv,0,,,,,,,,,0,1,1,0,0,37,37,49,,,,,,,,,,,,,,,,,,,,,,,,f,0,0.3163097919896245,,,,,,,,,,,,,,,,,,102,001,2021_Sep_20_1516,joplin1,2021.2.3,59.6183233085759,
,1 1 1 1 1 1 1 0 1 1,1,categoryB,j,genfile1.csv,0,,,,,,,,,0,1,1,0,0,38,38,53,,,,,,,,,,,,,,,,,,,,,,,,f,0,0.31757133291102946,,,,,,,,,,,,,,,,,,102,001,2021_Sep_20_1516,joplin1,2021.2.3,59.6183233085759,
,0 0 1 0 0 0 0 1 0 0,8,categoryA,f,genfile1.csv,1,,,,,,,,,0,1,1,0,0,39,39,7,,,,,,,,,,,,,,,,,,,,,,,,j,0,0.3024132919963449,,,,,,,,,,,,,,,,,,102,001,2021_Sep_20_1516,joplin1,2021.2.3,59.6183233085759,
,1 1 0 1 1 1 1 1 1 1,1,categoryB,j,genfile1.csv,0,,,,,,,,,0,1,1,0,0,40,40,52,,,,,,,,,,,,,,,,,,,,,,,,f,0,0.28598970896564424,,,,,,,,,,,,,,,,,,102,001,2021_Sep_20_1516,joplin1,2021.2.3,59.6183233085759,
,1 1 0 0 0 1 0 0 1 0,6,categoryA,f,genfile1.csv,0,,,,,,,,,0,1,1,0,0,41,41,31,,,,,,,,,,,,,,,,,,,,,,,,f,1,0.303049375070259,,,,,,,,,,,,,,,,,,102,001,2021_Sep_20_1516,joplin1,2021.2.3,59.6183233085759,
,1 0 1 1 1 1 1 0 1 1,2,categoryB,j,genfile1.csv,0,,,,,,,,,0,1,1,0,0,42,42,48,,,,,,,,,,,,,,,,,,,,,,,,j,1,0.414871291955933,,,,,,,,,,,,,,,,,,102,001,2021_Sep_20_1516,joplin1,2021.2.3,59.6183233085759,
,0 1 0 0 0 0 0 0 0 1,8,categoryA,f,genfile1.csv,0,,,,,,,,,0,1,1,0,0,43,43,25,,,,,,,,,,,,,,,,,,,,,,,,f,1,0.39620237494818866,,,,,,,,,,,,,,,,,,102,001,2021_Sep_20_1516,joplin1,2021.2.3,59.6183233085759,
,0 1 0 1 0 1 1 0 1 1,4,categoryB,j,genfile1.csv,0,,,,,,,,,0,1,1,0,0,44,44,39,,,,,,,,,,,,,,,,,,,,,,,,f,0,0.44635562505573034,,,,,,,,,,,,,,,,,,102,001,2021_Sep_20_1516,joplin1,2021.2.3,59.6183233085759,
,1 1 1 0 1 1 0 1 1 1,2,categoryB,j,genfile1.csv,1,,,,,,,,,0,1,1,0,0,45,45,13,,,,,,,,,,,,,,,,,,,,,,,,j,1,0.3395851249806583,,,,,,,,,,,,,,,,,,102,001,2021_Sep_20_1516,joplin1,2021.2.3,59.6183233085759,
,0 0 1 0 1 1 0 1 0 0,6,categoryA,f,genfile1.csv,1,,,,,,,,,0,1,1,0,0,46,46,4,,,,,,,,,,,,,,,,,,,,,,,,j,0,0.4514945831615478,,,,,,,,,,,,,,,,,,102,001,2021_Sep_20_1516,joplin1,2021.2.3,59.6183233085759,
,1 1 1 1 0 1 1 1 1 1,1,categoryB,j,genfile1.csv,0,,,,,,,,,0,1,1,0,0,47,47,54,,,,,,,,,,,,,,,,,,,,,,,,f,0,0.3814823750872165,,,,,,,,,,,,,,,,,,102,001,2021_Sep_20_1516,joplin1,2021.2.3,59.6183233085759,
,0 1 1 1 1 1 1 1 1 1,1,categoryB,j,genfile1.csv,0,,,,,,,,,0,1,1,0,0,48,48,51,,,,,,,,,,,,,,,,,,,,,,,,f,0,0.32298104208894074,,,,,,,,,,,,,,,,,,102,001,2021_Sep_20_1516,joplin1,2021.2.3,59.6183233085759,
,1 1 0 0 0 0 0 0 1 1,6,categoryA,f,genfile1.csv,1,,,,,,,,,0,1,1,0,0,49,49,8,,,,,,,,,,,,,,,,,,,,,,,,j,0,0.43526270892471075,,,,,,,,,,,,,,,,,,102,001,2021_Sep_20_1516,joplin1,2021.2.3,59.6183233085759,
,1 0 0 0 0 0 0 0 0 1,8,categoryA,f,genfile1.csv,1,,,,,,,,,0,1,1,0,0,50,50,2,,,,,,,,,,,,,,,,,,,,,,,,j,0,0.3609200001228601,,,,,,,,,,,,,,,,,,102,001,2021_Sep_20_1516,joplin1,2021.2.3,59.6183233085759,
,0 0 0 0 1 1 0 0 1 1,6,categoryA,f,genfile1.csv,0,,,,,,,,,0,1,1,0,0,51,51,33,,,,,,,,,,,,,,,,,,,,,,,,j,0,0.23766079195775092,,,,,,,,,,,,,,,,,,102,001,2021_Sep_20_1516,joplin1,2021.2.3,59.6183233085759,
,1 0 0 0 0 1 0 0 0 0,8,categoryA,f,genfile1.csv,0,,,,,,,,,0,1,1,0,0,52,52,23,,,,,,,,,,,,,,,,,,,,,,,,j,0,0.3522587919142097,,,,,,,,,,,,,,,,,,102,001,2021_Sep_20_1516,joplin1,2021.2.3,59.6183233085759,
,1 1 1 1 1 1 1 1 0 1,1,categoryB,j,genfile1.csv,0,,,,,,,,,0,1,1,0,0,53,53,55,,,,,,,,,,,,,,,,,,,,,,,,f,0,0.5350239588879049,,,,,,,,,,,,,,,,,,102,001,2021_Sep_20_1516,joplin1,2021.2.3,59.6183233085759,
,0 0 1 0 1 0 0 0 0 0,8,categoryA,f,genfile1.csv,0,,,,,,,,,0,1,1,0,0,54,54,24,,,,,,,,,,,,,,,,,,,,,,,,j,0,0.48613595915958285,,,,,,,,,,,,,,,,,,102,001,2021_Sep_20_1516,joplin1,2021.2.3,59.6183233085759,
,0 0 0 0 0 0 0 1 0 0,9,categoryA,f,genfile1.csv,0,,,,,,,,,0,1,1,0,0,55,55,20,,,,,,,,,,,,,,,,,,,,,,,,j,0,0.39795500016771257,,,,,,,,,,,,,,,,,,102,001,2021_Sep_20_1516,joplin1,2021.2.3,59.6183233085759,
,,,,,genfile1.csv,,,,,,,,,,0,1,1,0,,,,,,,,,,,,,,,,,,space,2.0770234579686075,,,,,,,,,,,,,,,,,,,,,,,,,,,,,102,001,2021_Sep_20_1516,joplin1,2021.2.3,59.6183233085759,
,,,,,,,,,,,,,,,,,,,,,,,,,,,,,,,,,,,,,,,,,,,,,,,,,None,,,,,,,,,,,,,,,,,102,001,2021_Sep_20_1516,joplin1,2021.2.3,59.6183233085759,
,,,,,,,,,,,,,,,,,,,,,,,,,,,,,,,,,,,,,,,,,,,,,,,,,,None,,,,,,,,,,,,,,,,102,001,2021_Sep_20_1516,joplin1,2021.2.3,59.6183233085759,
,,,,,,,,,,,,,,,,,,,,,,,,,,,,,,,,,,,,,,,,,,,,,,,,,,,0.7,radio,0.3,Are you Hispanic/Latino?,0,None,None,None,None,,,,,,,102,001,2021_Sep_20_1516,joplin1,2021.2.3,59.6183233085759,
,,,,,,,,,,,,,,,,,,,,,,,,,,,,,,,,,,,,,,,,,,,,,,,,,,,0.7,radio,0.3,Are you an American Indian or Alaska Native?,1,None,None,None,None,,,,,,,102,001,2021_Sep_20_1516,joplin1,2021.2.3,59.6183233085759,
,,,,,,,,,,,,,,,,,,,,,,,,,,,,,,,,,,,,,,,,,,,,,,,,,,,0.7,radio,0.3,Are you Asian?,2,None,None,None,None,,,,,,,102,001,2021_Sep_20_1516,joplin1,2021.2.3,59.6183233085759,
,,,,,,,,,,,,,,,,,,,,,,,,,,,,,,,,,,,,,,,,,,,,,,,,,,,0.7,radio,0.3,Are you Black or African American?,3,None,None,None,None,,,,,,,102,001,2021_Sep_20_1516,joplin1,2021.2.3,59.6183233085759,
,,,,,,,,,,,,,,,,,,,,,,,,,,,,,,,,,,,,,,,,,,,,,,,,,,,0.7,radio,0.3,Are you a Native Hawaiian or other Pacific Islander?,4,None,None,None,None,,,,,,,102,001,2021_Sep_20_1516,joplin1,2021.2.3,59.6183233085759,
,,,,,,,,,,,,,,,,,,,,,,,,,,,,,,,,,,,,,,,,,,,,,,,,,,,0.7,radio,0.3,Are you White?,5,None,None,None,None,,,,,,,102,001,2021_Sep_20_1516,joplin1,2021.2.3,59.6183233085759,
,,,,,,,,,,,,,,,,,,,,,,,,,,,,,,,,,,,,,,,,,,,,,,,,,,,0.85,radio,0.3,"Do you have any history of neurological issues such as stroke, head injury or a neurodegenerative disorder?",6,None,None,None,None,,,,,,,102,001,2021_Sep_20_1516,joplin1,2021.2.3,59.6183233085759,
,,,,,,,,,,,,,,,,,,,,,,,,,,,,,,,,,,,,,,,,,,,,,,,,,,,,,,,,,,,,None,,,,,,102,001,2021_Sep_20_1516,joplin1,2021.2.3,59.6183233085759,
,,,,,,,,,,,,,,,,,,,,,,,,,,,,,,,,,,,,,,,,,,,,,,,,,,,,,,,,,,,,,None,,,,,102,001,2021_Sep_20_1516,joplin1,2021.2.3,59.6183233085759,
,,,,,,,,,,,,,,,,,,,,,,,,,,,,,,,,,,,,,,,,,,,,,,,,,,,,,,,,,,,,,,,,None,,102,001,2021_Sep_20_1516,joplin1,2021.2.3,59.6183233085759,
,,,,,,,,,,,,,,,,,,,,,,,,,,,,,,,,,,,,,,,,,,,,,,,,,,,,,,,,,,,,,,,,,,,,,,,,
