train_set,stim_id,sums_feat,category,correct_key,gen_file,train_item,train_runs.thisRepN,train_runs.thisTrialN,train_runs.thisN,train_runs.thisIndex,train_trials.thisRepN,train_trials.thisTrialN,train_trials.thisN,train_trials.thisIndex,test_runs.thisRepN,test_runs.thisTrialN,test_runs.thisN,test_runs.thisIndex,test_trials.thisRepN,test_trials.thisTrialN,test_trials.thisN,test_trials.thisIndex,welcome_key.keys,welcome_key.rt,welcome_key.started,welcome_key.stopped,train_inst1_key.keys,train_inst1_key.rt,train_inst2_key.keys,train_inst2_key.rt,train_begin_key.keys,train_begin_key.rt,train_key.keys,train_key.corr,train_key.rt,break_key.keys,break_key.rt,key_resp.keys,key_resp.rt,test_inst1_key.keys,test_inst1_key.rt,test_inst2_key.keys,test_inst2_key.rt,test_begin_key.keys,test_begin_key.rt,test_key.keys,test_key.corr,test_key.rt,test_end_key.keys,test_end_key.rt,demo_inst1_key.keys,demo_inst1_key.rt,form.questionWidth,form.type,form.respWidth,form.itemText,form.index,form.font,form.markerColor,form.response,form.rt,form_key.keys,form_key.rt,demo_inst2_key.keys,demo_inst2_key.rt,gender_string,age_string,demo4_key.keys,demo4_key.rt,typedWord,participant,session,date,expName,psychopyVersion,frameRate,
,,,,,,,,,,,,,,,,,,,,,,,space,10.215610167011619,46.66859541693702,None,,,,,,,,,,,,,,,,,,,,,,,,,,,,,,,,,,,,,,,,,,,,,102,002,2021_Sep_22_1523,joplin1,2021.2.3,60.01150734655219,
,,,,,,,,,,,,,,,,,,,,,,,,,,,j,3.2528192091267556,,,,,,,,,,,,,,,,,,,,,,,,,,,,,,,,,,,,,,,,,,,102,002,2021_Sep_22_1523,joplin1,2021.2.3,60.01150734655219,
,,,,,,,,,,,,,,,,,,,,,,,,,,,,,space,4.964856415987015,,,,,,,,,,,,,,,,,,,,,,,,,,,,,,,,,,,,,,,,,102,002,2021_Sep_22_1523,joplin1,2021.2.3,60.01150734655219,
,,,,,,,,,,,,,,,,,,,,,,,,,,,,,,,space,0.9889762499369681,,,,,,,,,,,,,,,,,,,,,,,,,,,,,,,,,,,,,,,102,002,2021_Sep_22_1523,joplin1,2021.2.3,60.01150734655219,
_train_cond.csv,1 0 1 1 1 1 1 1 0 1,2,categoryB,j,,,0,0,0,1,0,0,0,8,,,,,,,,,,,,,,,,,,,j,1,1.2918495829217136,,,,,,,,,,,,,,,,,,,,,,,,,,,,,,,,,,,,102,002,2021_Sep_22_1523,joplin1,2021.2.3,60.01150734655219,
_train_cond.csv,1 1 0 1 0 0 1 0 1 1,4,categoryB,j,,,0,0,0,1,0,1,1,9,,,,,,,,,,,,,,,,,,,f,0,0.3030307500157505,,,,,,,,,,,,,,,,,,,,,,,,,,,,,,,,,,,,102,002,2021_Sep_22_1523,joplin1,2021.2.3,60.01150734655219,
_train_cond.csv,0 1 1 1 1 1 1 1 1 0,2,categoryB,j,,,0,0,0,1,0,2,2,7,,,,,,,,,,,,,,,,,,,j,1,0.22543666698038578,,,,,,,,,,,,,,,,,,,,,,,,,,,,,,,,,,,,102,002,2021_Sep_22_1523,joplin1,2021.2.3,60.01150734655219,
_train_cond.csv,0 0 0 1 0 0 1 0 0 0,8,categoryA,f,,,0,0,0,1,0,3,3,4,,,,,,,,,,,,,,,,,,,f,1,0.34234966710209846,,,,,,,,,,,,,,,,,,,,,,,,,,,,,,,,,,,,102,002,2021_Sep_22_1523,joplin1,2021.2.3,60.01150734655219,
_train_cond.csv,0 1 0 0 0 0 0 0 1 0,8,categoryA,f,,,0,0,0,1,0,4,4,1,,,,,,,,,,,,,,,,,,,f,1,0.14152858406305313,,,,,,,,,,,,,,,,,,,,,,,,,,,,,,,,,,,,102,002,2021_Sep_22_1523,joplin1,2021.2.3,60.01150734655219,
_train_cond.csv,1 1 0 0 0 0 0 0 1 1,6,categoryA,f,,,0,0,0,1,0,5,5,6,,,,,,,,,,,,,,,,,,,j,0,0.23151654214598238,,,,,,,,,,,,,,,,,,,,,,,,,,,,,,,,,,,,102,002,2021_Sep_22_1523,joplin1,2021.2.3,60.01150734655219,
_train_cond.csv,0 0 1 0 0 0 0 1 0 0,8,categoryA,f,,,0,0,0,1,0,6,6,5,,,,,,,,,,,,,,,,,,,f,1,0.32416275003924966,,,,,,,,,,,,,,,,,,,,,,,,,,,,,,,,,,,,102,002,2021_Sep_22_1523,joplin1,2021.2.3,60.01150734655219,
_train_cond.csv,1 0 0 0 0 0 0 0 0 1,8,categoryA,f,,,0,0,0,1,0,7,7,0,,,,,,,,,,,,,,,,,,,f,1,0.2127817498985678,,,,,,,,,,,,,,,,,,,,,,,,,,,,,,,,,,,,102,002,2021_Sep_22_1523,joplin1,2021.2.3,60.01150734655219,
_train_cond.csv,1 1 0 1 1 1 1 0 1 1,2,categoryB,j,,,0,0,0,1,0,8,8,12,,,,,,,,,,,,,,,,,,,f,0,0.29181349999271333,,,,,,,,,,,,,,,,,,,,,,,,,,,,,,,,,,,,102,002,2021_Sep_22_1523,joplin1,2021.2.3,60.01150734655219,
_train_cond.csv,1 1 1 0 1 1 0 1 1 1,2,categoryB,j,,,0,0,0,1,0,9,9,11,,,,,,,,,,,,,,,,,,,j,1,0.36767004197463393,,,,,,,,,,,,,,,,,,,,,,,,,,,,,,,,,,,,102,002,2021_Sep_22_1523,joplin1,2021.2.3,60.01150734655219,
_train_cond.csv,1 1 1 0 0 0 0 1 1 1,4,categoryB,j,,,0,0,0,1,0,10,10,10,,,,,,,,,,,,,,,,,,,j,1,0.3114160420373082,,,,,,,,,,,,,,,,,,,,,,,,,,,,,,,,,,,,102,002,2021_Sep_22_1523,joplin1,2021.2.3,60.01150734655219,
_train_cond.csv,0 0 0 1 1 1 1 0 0 0,6,categoryA,f,,,0,0,0,1,0,11,11,3,,,,,,,,,,,,,,,,,,,j,0,0.2509130001999438,,,,,,,,,,,,,,,,,,,,,,,,,,,,,,,,,,,,102,002,2021_Sep_22_1523,joplin1,2021.2.3,60.01150734655219,
_train_cond.csv,0 0 1 1 1 1 1 1 0 0,4,categoryB,j,,,0,0,0,1,0,12,12,13,,,,,,,,,,,,,,,,,,,f,0,0.4063889170065522,,,,,,,,,,,,,,,,,,,,,,,,,,,,,,,,,,,,102,002,2021_Sep_22_1523,joplin1,2021.2.3,60.01150734655219,
_train_cond.csv,0 0 1 0 1 1 0 1 0 0,6,categoryA,f,,,0,0,0,1,0,13,13,2,,,,,,,,,,,,,,,,,,,j,0,0.23541754111647606,,,,,,,,,,,,,,,,,,,,,,,,,,,,,,,,,,,,102,002,2021_Sep_22_1523,joplin1,2021.2.3,60.01150734655219,
_train_cond.csv,1 1 0 0 0 0 0 0 1 1,6,categoryA,f,,,0,0,0,1,1,0,14,6,,,,,,,,,,,,,,,,,,,f,1,0.2646110828500241,,,,,,,,,,,,,,,,,,,,,,,,,,,,,,,,,,,,102,002,2021_Sep_22_1523,joplin1,2021.2.3,60.01150734655219,
_train_cond.csv,0 1 0 0 0 0 0 0 1 0,8,categoryA,f,,,0,0,0,1,1,1,15,1,,,,,,,,,,,,,,,,,,,f,1,0.3013754999265075,,,,,,,,,,,,,,,,,,,,,,,,,,,,,,,,,,,,102,002,2021_Sep_22_1523,joplin1,2021.2.3,60.01150734655219,
_train_cond.csv,1 1 1 0 1 1 0 1 1 1,2,categoryB,j,,,0,0,0,1,1,2,16,11,,,,,,,,,,,,,,,,,,,f,0,0.3438808750361204,,,,,,,,,,,,,,,,,,,,,,,,,,,,,,,,,,,,102,002,2021_Sep_22_1523,joplin1,2021.2.3,60.01150734655219,
_train_cond.csv,0 0 0 1 0 0 1 0 0 0,8,categoryA,f,,,0,0,0,1,1,3,17,4,,,,,,,,,,,,,,,,,,,j,0,0.28015674999915063,,,,,,,,,,,,,,,,,,,,,,,,,,,,,,,,,,,,102,002,2021_Sep_22_1523,joplin1,2021.2.3,60.01150734655219,
_train_cond.csv,1 1 0 1 1 1 1 0 1 1,2,categoryB,j,,,0,0,0,1,1,4,18,12,,,,,,,,,,,,,,,,,,,j,1,0.2835558750666678,,,,,,,,,,,,,,,,,,,,,,,,,,,,,,,,,,,,102,002,2021_Sep_22_1523,joplin1,2021.2.3,60.01150734655219,
_train_cond.csv,1 1 1 0 0 0 0 1 1 1,4,categoryB,j,,,0,0,0,1,1,5,19,10,,,,,,,,,,,,,,,,,,,j,1,0.5754217498470098,,,,,,,,,,,,,,,,,,,,,,,,,,,,,,,,,,,,102,002,2021_Sep_22_1523,joplin1,2021.2.3,60.01150734655219,
_train_cond.csv,1 1 0 1 0 0 1 0 1 1,4,categoryB,j,,,0,0,0,1,1,6,20,9,,,,,,,,,,,,,,,,,,,f,0,0.4000227090436965,,,,,,,,,,,,,,,,,,,,,,,,,,,,,,,,,,,,102,002,2021_Sep_22_1523,joplin1,2021.2.3,60.01150734655219,
_train_cond.csv,1 0 1 1 1 1 1 1 0 1,2,categoryB,j,,,0,0,0,1,1,7,21,8,,,,,,,,,,,,,,,,,,,f,0,0.47069687489420176,,,,,,,,,,,,,,,,,,,,,,,,,,,,,,,,,,,,102,002,2021_Sep_22_1523,joplin1,2021.2.3,60.01150734655219,
_train_cond.csv,0 1 1 1 1 1 1 1 1 0,2,categoryB,j,,,0,0,0,1,1,8,22,7,,,,,,,,,,,,,,,,,,,j,1,0.3381766250822693,,,,,,,,,,,,,,,,,,,,,,,,,,,,,,,,,,,,102,002,2021_Sep_22_1523,joplin1,2021.2.3,60.01150734655219,
_train_cond.csv,0 0 1 0 0 0 0 1 0 0,8,categoryA,f,,,0,0,0,1,1,9,23,5,,,,,,,,,,,,,,,,,,,f,1,0.4503275831229985,,,,,,,,,,,,,,,,,,,,,,,,,,,,,,,,,,,,102,002,2021_Sep_22_1523,joplin1,2021.2.3,60.01150734655219,
_train_cond.csv,1 0 0 0 0 0 0 0 0 1,8,categoryA,f,,,0,0,0,1,1,10,24,0,,,,,,,,,,,,,,,,,,,f,1,0.4314756249077618,,,,,,,,,,,,,,,,,,,,,,,,,,,,,,,,,,,,102,002,2021_Sep_22_1523,joplin1,2021.2.3,60.01150734655219,
_train_cond.csv,0 0 1 0 1 1 0 1 0 0,6,categoryA,f,,,0,0,0,1,1,11,25,2,,,,,,,,,,,,,,,,,,,j,0,0.5971480831503868,,,,,,,,,,,,,,,,,,,,,,,,,,,,,,,,,,,,102,002,2021_Sep_22_1523,joplin1,2021.2.3,60.01150734655219,
_train_cond.csv,0 0 1 1 1 1 1 1 0 0,4,categoryB,j,,,0,0,0,1,1,12,26,13,,,,,,,,,,,,,,,,,,,f,0,0.6694418331608176,,,,,,,,,,,,,,,,,,,,,,,,,,,,,,,,,,,,102,002,2021_Sep_22_1523,joplin1,2021.2.3,60.01150734655219,
_train_cond.csv,0 0 0 1 1 1 1 0 0 0,6,categoryA,f,,,0,0,0,1,1,13,27,3,,,,,,,,,,,,,,,,,,,f,1,0.080571583006531,,,,,,,,,,,,,,,,,,,,,,,,,,,,,,,,,,,,102,002,2021_Sep_22_1523,joplin1,2021.2.3,60.01150734655219,
_train_cond.csv,0 1 1 1 1 1 1 1 1 0,2,categoryB,j,,,0,0,0,1,2,0,28,7,,,,,,,,,,,,,,,,,,,j,1,0.0849368751514703,,,,,,,,,,,,,,,,,,,,,,,,,,,,,,,,,,,,102,002,2021_Sep_22_1523,joplin1,2021.2.3,60.01150734655219,
_train_cond.csv,1 1 1 0 0 0 0 1 1 1,4,categoryB,j,,,0,0,0,1,2,1,29,10,,,,,,,,,,,,,,,,,,,f,0,0.35237099998630583,,,,,,,,,,,,,,,,,,,,,,,,,,,,,,,,,,,,102,002,2021_Sep_22_1523,joplin1,2021.2.3,60.01150734655219,
_train_cond.csv,0 0 1 1 1 1 1 1 0 0,4,categoryB,j,,,0,0,0,1,2,2,30,13,,,,,,,,,,,,,,,,,,,j,1,0.35266604204662144,,,,,,,,,,,,,,,,,,,,,,,,,,,,,,,,,,,,102,002,2021_Sep_22_1523,joplin1,2021.2.3,60.01150734655219,
_train_cond.csv,1 1 0 1 0 0 1 0 1 1,4,categoryB,j,,,0,0,0,1,2,3,31,9,,,,,,,,,,,,,,,,,,,j,1,0.5842642500065267,,,,,,,,,,,,,,,,,,,,,,,,,,,,,,,,,,,,102,002,2021_Sep_22_1523,joplin1,2021.2.3,60.01150734655219,
_train_cond.csv,1 1 0 0 0 0 0 0 1 1,6,categoryA,f,,,0,0,0,1,2,4,32,6,,,,,,,,,,,,,,,,,,,j,0,0.3521730420179665,,,,,,,,,,,,,,,,,,,,,,,,,,,,,,,,,,,,102,002,2021_Sep_22_1523,joplin1,2021.2.3,60.01150734655219,
_train_cond.csv,1 1 1 0 1 1 0 1 1 1,2,categoryB,j,,,0,0,0,1,2,5,33,11,,,,,,,,,,,,,,,,,,,f,0,0.34437295887619257,,,,,,,,,,,,,,,,,,,,,,,,,,,,,,,,,,,,102,002,2021_Sep_22_1523,joplin1,2021.2.3,60.01150734655219,
_train_cond.csv,1 1 0 1 1 1 1 0 1 1,2,categoryB,j,,,0,0,0,1,2,6,34,12,,,,,,,,,,,,,,,,,,,f,0,0.25724204117432237,,,,,,,,,,,,,,,,,,,,,,,,,,,,,,,,,,,,102,002,2021_Sep_22_1523,joplin1,2021.2.3,60.01150734655219,
_train_cond.csv,0 0 1 0 1 1 0 1 0 0,6,categoryA,f,,,0,0,0,1,2,7,35,2,,,,,,,,,,,,,,,,,,,j,0,0.40655099996365607,,,,,,,,,,,,,,,,,,,,,,,,,,,,,,,,,,,,102,002,2021_Sep_22_1523,joplin1,2021.2.3,60.01150734655219,
_train_cond.csv,1 0 0 0 0 0 0 0 0 1,8,categoryA,f,,,0,0,0,1,2,8,36,0,,,,,,,,,,,,,,,,,,,f,1,0.41998595790937543,,,,,,,,,,,,,,,,,,,,,,,,,,,,,,,,,,,,102,002,2021_Sep_22_1523,joplin1,2021.2.3,60.01150734655219,
_train_cond.csv,0 0 0 1 1 1 1 0 0 0,6,categoryA,f,,,0,0,0,1,2,9,37,3,,,,,,,,,,,,,,,,,,,f,1,0.20943858404643834,,,,,,,,,,,,,,,,,,,,,,,,,,,,,,,,,,,,102,002,2021_Sep_22_1523,joplin1,2021.2.3,60.01150734655219,
_train_cond.csv,1 0 1 1 1 1 1 1 0 1,2,categoryB,j,,,0,0,0,1,2,10,38,8,,,,,,,,,,,,,,,,,,,f,0,0.3838049159385264,,,,,,,,,,,,,,,,,,,,,,,,,,,,,,,,,,,,102,002,2021_Sep_22_1523,joplin1,2021.2.3,60.01150734655219,
_train_cond.csv,0 1 0 0 0 0 0 0 1 0,8,categoryA,f,,,0,0,0,1,2,11,39,1,,,,,,,,,,,,,,,,,,,f,1,0.3107810840010643,,,,,,,,,,,,,,,,,,,,,,,,,,,,,,,,,,,,102,002,2021_Sep_22_1523,joplin1,2021.2.3,60.01150734655219,
_train_cond.csv,0 0 0 1 0 0 1 0 0 0,8,categoryA,f,,,0,0,0,1,2,12,40,4,,,,,,,,,,,,,,,,,,,f,1,1.4730533340480179,,,,,,,,,,,,,,,,,,,,,,,,,,,,,,,,,,,,102,002,2021_Sep_22_1523,joplin1,2021.2.3,60.01150734655219,
_train_cond.csv,0 0 1 0 0 0 0 1 0 0,8,categoryA,f,,,0,0,0,1,2,13,41,5,,,,,,,,,,,,,,,,,,,f,1,0.7420939169824123,,,,,,,,,,,,,,,,,,,,,,,,,,,,,,,,,,,,102,002,2021_Sep_22_1523,joplin1,2021.2.3,60.01150734655219,
_train_cond.csv,,,,,,,0,0,0,1,,,,,,,,,,,,,,,,,,,,,,,,,,space,1.5662689579185098,,,,,,,,,,,,,,,,,,,,,,,,,,,,,,,,,,102,002,2021_Sep_22_1523,joplin1,2021.2.3,60.01150734655219,
_train_cond.csv,0 0 1 1 1 1 1 1 0 0,4,categoryB,j,,,0,1,1,5,0,0,0,13,,,,,,,,,,,,,,,,,,,j,1,0.8866805420257151,,,,,,,,,,,,,,,,,,,,,,,,,,,,,,,,,,,,102,002,2021_Sep_22_1523,joplin1,2021.2.3,60.01150734655219,
_train_cond.csv,1 1 0 0 0 0 0 0 1 1,6,categoryA,f,,,0,1,1,5,0,1,1,6,,,,,,,,,,,,,,,,,,,f,1,0.2502390840090811,,,,,,,,,,,,,,,,,,,,,,,,,,,,,,,,,,,,102,002,2021_Sep_22_1523,joplin1,2021.2.3,60.01150734655219,
_train_cond.csv,0 0 1 0 0 0 0 1 0 0,8,categoryA,f,,,0,1,1,5,0,2,2,5,,,,,,,,,,,,,,,,,,,f,1,0.40541279199533165,,,,,,,,,,,,,,,,,,,,,,,,,,,,,,,,,,,,102,002,2021_Sep_22_1523,joplin1,2021.2.3,60.01150734655219,
_train_cond.csv,0 0 0 1 0 0 1 0 0 0,8,categoryA,f,,,0,1,1,5,0,3,3,4,,,,,,,,,,,,,,,,,,,j,0,0.6128893750719726,,,,,,,,,,,,,,,,,,,,,,,,,,,,,,,,,,,,102,002,2021_Sep_22_1523,joplin1,2021.2.3,60.01150734655219,
_train_cond.csv,1 0 0 0 0 0 0 0 0 1,8,categoryA,f,,,0,1,1,5,0,4,4,0,,,,,,,,,,,,,,,,,,,f,1,0.3945733751170337,,,,,,,,,,,,,,,,,,,,,,,,,,,,,,,,,,,,102,002,2021_Sep_22_1523,joplin1,2021.2.3,60.01150734655219,
_train_cond.csv,1 1 0 1 1 1 1 0 1 1,2,categoryB,j,,,0,1,1,5,0,5,5,12,,,,,,,,,,,,,,,,,,,f,0,0.3539975411258638,,,,,,,,,,,,,,,,,,,,,,,,,,,,,,,,,,,,102,002,2021_Sep_22_1523,joplin1,2021.2.3,60.01150734655219,
_train_cond.csv,0 1 1 1 1 1 1 1 1 0,2,categoryB,j,,,0,1,1,5,0,6,6,7,,,,,,,,,,,,,,,,,,,f,0,0.5281764168757945,,,,,,,,,,,,,,,,,,,,,,,,,,,,,,,,,,,,102,002,2021_Sep_22_1523,joplin1,2021.2.3,60.01150734655219,
_train_cond.csv,0 1 0 0 0 0 0 0 1 0,8,categoryA,f,,,0,1,1,5,0,7,7,1,,,,,,,,,,,,,,,,,,,f,1,0.4510642080567777,,,,,,,,,,,,,,,,,,,,,,,,,,,,,,,,,,,,102,002,2021_Sep_22_1523,joplin1,2021.2.3,60.01150734655219,
_train_cond.csv,0 0 0 1 1 1 1 0 0 0,6,categoryA,f,,,0,1,1,5,0,8,8,3,,,,,,,,,,,,,,,,,,,f,1,0.40829787496477365,,,,,,,,,,,,,,,,,,,,,,,,,,,,,,,,,,,,102,002,2021_Sep_22_1523,joplin1,2021.2.3,60.01150734655219,
_train_cond.csv,1 1 1 0 1 1 0 1 1 1,2,categoryB,j,,,0,1,1,5,0,9,9,11,,,,,,,,,,,,,,,,,,,j,1,0.6315793751273304,,,,,,,,,,,,,,,,,,,,,,,,,,,,,,,,,,,,102,002,2021_Sep_22_1523,joplin1,2021.2.3,60.01150734655219,
_train_cond.csv,1 0 1 1 1 1 1 1 0 1,2,categoryB,j,,,0,1,1,5,0,10,10,8,,,,,,,,,,,,,,,,,,,f,0,0.4764271250460297,,,,,,,,,,,,,,,,,,,,,,,,,,,,,,,,,,,,102,002,2021_Sep_22_1523,joplin1,2021.2.3,60.01150734655219,
_train_cond.csv,1 1 1 0 0 0 0 1 1 1,4,categoryB,j,,,0,1,1,5,0,11,11,10,,,,,,,,,,,,,,,,,,,f,0,0.48873679200187325,,,,,,,,,,,,,,,,,,,,,,,,,,,,,,,,,,,,102,002,2021_Sep_22_1523,joplin1,2021.2.3,60.01150734655219,
_train_cond.csv,1 1 0 1 0 0 1 0 1 1,4,categoryB,j,,,0,1,1,5,0,12,12,9,,,,,,,,,,,,,,,,,,,j,1,0.3636942501179874,,,,,,,,,,,,,,,,,,,,,,,,,,,,,,,,,,,,102,002,2021_Sep_22_1523,joplin1,2021.2.3,60.01150734655219,
_train_cond.csv,0 0 1 0 1 1 0 1 0 0,6,categoryA,f,,,0,1,1,5,0,13,13,2,,,,,,,,,,,,,,,,,,,f,1,0.5629875829908997,,,,,,,,,,,,,,,,,,,,,,,,,,,,,,,,,,,,102,002,2021_Sep_22_1523,joplin1,2021.2.3,60.01150734655219,
_train_cond.csv,1 0 0 0 0 0 0 0 0 1,8,categoryA,f,,,0,1,1,5,1,0,14,0,,,,,,,,,,,,,,,,,,,f,1,0.5873540830798447,,,,,,,,,,,,,,,,,,,,,,,,,,,,,,,,,,,,102,002,2021_Sep_22_1523,joplin1,2021.2.3,60.01150734655219,
_train_cond.csv,0 0 1 1 1 1 1 1 0 0,4,categoryB,j,,,0,1,1,5,1,1,15,13,,,,,,,,,,,,,,,,,,,f,0,0.258101416984573,,,,,,,,,,,,,,,,,,,,,,,,,,,,,,,,,,,,102,002,2021_Sep_22_1523,joplin1,2021.2.3,60.01150734655219,
_train_cond.csv,0 1 1 1 1 1 1 1 1 0,2,categoryB,j,,,0,1,1,5,1,2,16,7,,,,,,,,,,,,,,,,,,,f,0,0.2854155420791358,,,,,,,,,,,,,,,,,,,,,,,,,,,,,,,,,,,,102,002,2021_Sep_22_1523,joplin1,2021.2.3,60.01150734655219,
_train_cond.csv,0 0 1 0 1 1 0 1 0 0,6,categoryA,f,,,0,1,1,5,1,3,17,2,,,,,,,,,,,,,,,,,,,j,0,0.1689826250076294,,,,,,,,,,,,,,,,,,,,,,,,,,,,,,,,,,,,102,002,2021_Sep_22_1523,joplin1,2021.2.3,60.01150734655219,
_train_cond.csv,1 0 1 1 1 1 1 1 0 1,2,categoryB,j,,,0,1,1,5,1,4,18,8,,,,,,,,,,,,,,,,,,,f,0,0.400010708021,,,,,,,,,,,,,,,,,,,,,,,,,,,,,,,,,,,,102,002,2021_Sep_22_1523,joplin1,2021.2.3,60.01150734655219,
_train_cond.csv,0 0 0 1 0 0 1 0 0 0,8,categoryA,f,,,0,1,1,5,1,5,19,4,,,,,,,,,,,,,,,,,,,f,1,0.8216606250498444,,,,,,,,,,,,,,,,,,,,,,,,,,,,,,,,,,,,102,002,2021_Sep_22_1523,joplin1,2021.2.3,60.01150734655219,
_train_cond.csv,0 1 0 0 0 0 0 0 1 0,8,categoryA,f,,,0,1,1,5,1,6,20,1,,,,,,,,,,,,,,,,,,,f,1,0.5150403340812773,,,,,,,,,,,,,,,,,,,,,,,,,,,,,,,,,,,,102,002,2021_Sep_22_1523,joplin1,2021.2.3,60.01150734655219,
_train_cond.csv,0 0 1 0 0 0 0 1 0 0,8,categoryA,f,,,0,1,1,5,1,7,21,5,,,,,,,,,,,,,,,,,,,f,1,0.7252574579324573,,,,,,,,,,,,,,,,,,,,,,,,,,,,,,,,,,,,102,002,2021_Sep_22_1523,joplin1,2021.2.3,60.01150734655219,
_train_cond.csv,1 1 0 1 0 0 1 0 1 1,4,categoryB,j,,,0,1,1,5,1,8,22,9,,,,,,,,,,,,,,,,,,,f,0,0.9427548749372363,,,,,,,,,,,,,,,,,,,,,,,,,,,,,,,,,,,,102,002,2021_Sep_22_1523,joplin1,2021.2.3,60.01150734655219,
_train_cond.csv,0 0 0 1 1 1 1 0 0 0,6,categoryA,f,,,0,1,1,5,1,9,23,3,,,,,,,,,,,,,,,,,,,j,0,0.5356039579492062,,,,,,,,,,,,,,,,,,,,,,,,,,,,,,,,,,,,102,002,2021_Sep_22_1523,joplin1,2021.2.3,60.01150734655219,
_train_cond.csv,1 1 1 0 1 1 0 1 1 1,2,categoryB,j,,,0,1,1,5,1,10,24,11,,,,,,,,,,,,,,,,,,,j,1,0.5039328748825938,,,,,,,,,,,,,,,,,,,,,,,,,,,,,,,,,,,,102,002,2021_Sep_22_1523,joplin1,2021.2.3,60.01150734655219,
_train_cond.csv,1 1 0 1 1 1 1 0 1 1,2,categoryB,j,,,0,1,1,5,1,11,25,12,,,,,,,,,,,,,,,,,,,f,0,0.5216024168767035,,,,,,,,,,,,,,,,,,,,,,,,,,,,,,,,,,,,102,002,2021_Sep_22_1523,joplin1,2021.2.3,60.01150734655219,
_train_cond.csv,1 1 1 0 0 0 0 1 1 1,4,categoryB,j,,,0,1,1,5,1,12,26,10,,,,,,,,,,,,,,,,,,,j,1,0.6270443750545382,,,,,,,,,,,,,,,,,,,,,,,,,,,,,,,,,,,,102,002,2021_Sep_22_1523,joplin1,2021.2.3,60.01150734655219,
_train_cond.csv,1 1 0 0 0 0 0 0 1 1,6,categoryA,f,,,0,1,1,5,1,13,27,6,,,,,,,,,,,,,,,,,,,f,1,0.3211624580435455,,,,,,,,,,,,,,,,,,,,,,,,,,,,,,,,,,,,102,002,2021_Sep_22_1523,joplin1,2021.2.3,60.01150734655219,
_train_cond.csv,0 0 0 1 0 0 1 0 0 0,8,categoryA,f,,,0,1,1,5,2,0,28,4,,,,,,,,,,,,,,,,,,,f,1,0.4261329169385135,,,,,,,,,,,,,,,,,,,,,,,,,,,,,,,,,,,,102,002,2021_Sep_22_1523,joplin1,2021.2.3,60.01150734655219,
_train_cond.csv,0 1 0 0 0 0 0 0 1 0,8,categoryA,f,,,0,1,1,5,2,1,29,1,,,,,,,,,,,,,,,,,,,f,1,0.8076684579718858,,,,,,,,,,,,,,,,,,,,,,,,,,,,,,,,,,,,102,002,2021_Sep_22_1523,joplin1,2021.2.3,60.01150734655219,
_train_cond.csv,1 1 0 1 0 0 1 0 1 1,4,categoryB,j,,,0,1,1,5,2,2,30,9,,,,,,,,,,,,,,,,,,,j,1,0.3754309171345085,,,,,,,,,,,,,,,,,,,,,,,,,,,,,,,,,,,,102,002,2021_Sep_22_1523,joplin1,2021.2.3,60.01150734655219,
_train_cond.csv,1 0 0 0 0 0 0 0 0 1,8,categoryA,f,,,0,1,1,5,2,3,31,0,,,,,,,,,,,,,,,,,,,j,0,1.1677152910269797,,,,,,,,,,,,,,,,,,,,,,,,,,,,,,,,,,,,102,002,2021_Sep_22_1523,joplin1,2021.2.3,60.01150734655219,
_train_cond.csv,0 0 1 0 1 1 0 1 0 0,6,categoryA,f,,,0,1,1,5,2,4,32,2,,,,,,,,,,,,,,,,,,,f,1,1.039378333836794,,,,,,,,,,,,,,,,,,,,,,,,,,,,,,,,,,,,102,002,2021_Sep_22_1523,joplin1,2021.2.3,60.01150734655219,
_train_cond.csv,0 0 1 0 0 0 0 1 0 0,8,categoryA,f,,,0,1,1,5,2,5,33,5,,,,,,,,,,,,,,,,,,,f,1,0.4524162078741938,,,,,,,,,,,,,,,,,,,,,,,,,,,,,,,,,,,,102,002,2021_Sep_22_1523,joplin1,2021.2.3,60.01150734655219,
_train_cond.csv,1 1 1 0 0 0 0 1 1 1,4,categoryB,j,,,0,1,1,5,2,6,34,10,,,,,,,,,,,,,,,,,,,f,0,0.4501585417892784,,,,,,,,,,,,,,,,,,,,,,,,,,,,,,,,,,,,102,002,2021_Sep_22_1523,joplin1,2021.2.3,60.01150734655219,
_train_cond.csv,0 1 1 1 1 1 1 1 1 0,2,categoryB,j,,,0,1,1,5,2,7,35,7,,,,,,,,,,,,,,,,,,,j,1,0.7025508750230074,,,,,,,,,,,,,,,,,,,,,,,,,,,,,,,,,,,,102,002,2021_Sep_22_1523,joplin1,2021.2.3,60.01150734655219,
_train_cond.csv,0 0 1 1 1 1 1 1 0 0,4,categoryB,j,,,0,1,1,5,2,8,36,13,,,,,,,,,,,,,,,,,,,f,0,0.2887028339318931,,,,,,,,,,,,,,,,,,,,,,,,,,,,,,,,,,,,102,002,2021_Sep_22_1523,joplin1,2021.2.3,60.01150734655219,
_train_cond.csv,1 1 0 1 1 1 1 0 1 1,2,categoryB,j,,,0,1,1,5,2,9,37,12,,,,,,,,,,,,,,,,,,,j,1,0.5553027500864118,,,,,,,,,,,,,,,,,,,,,,,,,,,,,,,,,,,,102,002,2021_Sep_22_1523,joplin1,2021.2.3,60.01150734655219,
_train_cond.csv,1 0 1 1 1 1 1 1 0 1,2,categoryB,j,,,0,1,1,5,2,10,38,8,,,,,,,,,,,,,,,,,,,f,0,0.8108008329290897,,,,,,,,,,,,,,,,,,,,,,,,,,,,,,,,,,,,102,002,2021_Sep_22_1523,joplin1,2021.2.3,60.01150734655219,
_train_cond.csv,1 1 1 0 1 1 0 1 1 1,2,categoryB,j,,,0,1,1,5,2,11,39,11,,,,,,,,,,,,,,,,,,,j,1,0.5935976670589298,,,,,,,,,,,,,,,,,,,,,,,,,,,,,,,,,,,,102,002,2021_Sep_22_1523,joplin1,2021.2.3,60.01150734655219,
_train_cond.csv,0 0 0 1 1 1 1 0 0 0,6,categoryA,f,,,0,1,1,5,2,12,40,3,,,,,,,,,,,,,,,,,,,f,1,0.511852040886879,,,,,,,,,,,,,,,,,,,,,,,,,,,,,,,,,,,,102,002,2021_Sep_22_1523,joplin1,2021.2.3,60.01150734655219,
_train_cond.csv,1 1 0 0 0 0 0 0 1 1,6,categoryA,f,,,0,1,1,5,2,13,41,6,,,,,,,,,,,,,,,,,,,j,0,0.4897743749897927,,,,,,,,,,,,,,,,,,,,,,,,,,,,,,,,,,,,102,002,2021_Sep_22_1523,joplin1,2021.2.3,60.01150734655219,
_train_cond.csv,,,,,,,0,1,1,5,,,,,,,,,,,,,,,,,,,,,,,,,,space,2.899965374963358,,,,,,,,,,,,,,,,,,,,,,,,,,,,,,,,,,102,002,2021_Sep_22_1523,joplin1,2021.2.3,60.01150734655219,
_train_cond.csv,0 1 0 0 0 0 0 0 1 0,8,categoryA,f,,,0,2,2,0,0,0,0,1,,,,,,,,,,,,,,,,,,,j,0,0.9915649998001754,,,,,,,,,,,,,,,,,,,,,,,,,,,,,,,,,,,,102,002,2021_Sep_22_1523,joplin1,2021.2.3,60.01150734655219,
_train_cond.csv,1 1 0 1 1 1 1 0 1 1,2,categoryB,j,,,0,2,2,0,0,1,1,12,,,,,,,,,,,,,,,,,,,f,0,0.27060625003650784,,,,,,,,,,,,,,,,,,,,,,,,,,,,,,,,,,,,102,002,2021_Sep_22_1523,joplin1,2021.2.3,60.01150734655219,
_train_cond.csv,0 0 1 0 0 0 0 1 0 0,8,categoryA,f,,,0,2,2,0,0,2,2,5,,,,,,,,,,,,,,,,,,,j,0,0.6099729998968542,,,,,,,,,,,,,,,,,,,,,,,,,,,,,,,,,,,,102,002,2021_Sep_22_1523,joplin1,2021.2.3,60.01150734655219,
_train_cond.csv,1 1 1 0 1 1 0 1 1 1,2,categoryB,j,,,0,2,2,0,0,3,3,11,,,,,,,,,,,,,,,,,,,j,1,1.0002286669332534,,,,,,,,,,,,,,,,,,,,,,,,,,,,,,,,,,,,102,002,2021_Sep_22_1523,joplin1,2021.2.3,60.01150734655219,
_train_cond.csv,1 0 1 1 1 1 1 1 0 1,2,categoryB,j,,,0,2,2,0,0,4,4,8,,,,,,,,,,,,,,,,,,,f,0,0.8382486249320209,,,,,,,,,,,,,,,,,,,,,,,,,,,,,,,,,,,,102,002,2021_Sep_22_1523,joplin1,2021.2.3,60.01150734655219,
_train_cond.csv,0 0 1 1 1 1 1 1 0 0,4,categoryB,j,,,0,2,2,0,0,5,5,13,,,,,,,,,,,,,,,,,,,f,0,0.7323693749494851,,,,,,,,,,,,,,,,,,,,,,,,,,,,,,,,,,,,102,002,2021_Sep_22_1523,joplin1,2021.2.3,60.01150734655219,
_train_cond.csv,0 1 1 1 1 1 1 1 1 0,2,categoryB,j,,,0,2,2,0,0,6,6,7,,,,,,,,,,,,,,,,,,,j,1,0.6530806249938905,,,,,,,,,,,,,,,,,,,,,,,,,,,,,,,,,,,,102,002,2021_Sep_22_1523,joplin1,2021.2.3,60.01150734655219,
_train_cond.csv,1 1 0 1 0 0 1 0 1 1,4,categoryB,j,,,0,2,2,0,0,7,7,9,,,,,,,,,,,,,,,,,,,j,1,0.12169412500225008,,,,,,,,,,,,,,,,,,,,,,,,,,,,,,,,,,,,102,002,2021_Sep_22_1523,joplin1,2021.2.3,60.01150734655219,
_train_cond.csv,1 1 1 0 0 0 0 1 1 1,4,categoryB,j,,,0,2,2,0,0,8,8,10,,,,,,,,,,,,,,,,,,,j,1,0.3726162500679493,,,,,,,,,,,,,,,,,,,,,,,,,,,,,,,,,,,,102,002,2021_Sep_22_1523,joplin1,2021.2.3,60.01150734655219,
_train_cond.csv,1 0 0 0 0 0 0 0 0 1,8,categoryA,f,,,0,2,2,0,0,9,9,0,,,,,,,,,,,,,,,,,,,f,1,0.5400492909830064,,,,,,,,,,,,,,,,,,,,,,,,,,,,,,,,,,,,102,002,2021_Sep_22_1523,joplin1,2021.2.3,60.01150734655219,
_train_cond.csv,0 0 1 0 1 1 0 1 0 0,6,categoryA,f,,,0,2,2,0,0,10,10,2,,,,,,,,,,,,,,,,,,,f,1,0.3725701249204576,,,,,,,,,,,,,,,,,,,,,,,,,,,,,,,,,,,,102,002,2021_Sep_22_1523,joplin1,2021.2.3,60.01150734655219,
_train_cond.csv,1 1 0 0 0 0 0 0 1 1,6,categoryA,f,,,0,2,2,0,0,11,11,6,,,,,,,,,,,,,,,,,,,f,1,0.5577336670830846,,,,,,,,,,,,,,,,,,,,,,,,,,,,,,,,,,,,102,002,2021_Sep_22_1523,joplin1,2021.2.3,60.01150734655219,
_train_cond.csv,0 0 0 1 1 1 1 0 0 0,6,categoryA,f,,,0,2,2,0,0,12,12,3,,,,,,,,,,,,,,,,,,,j,0,0.5414651669561863,,,,,,,,,,,,,,,,,,,,,,,,,,,,,,,,,,,,102,002,2021_Sep_22_1523,joplin1,2021.2.3,60.01150734655219,
_train_cond.csv,0 0 0 1 0 0 1 0 0 0,8,categoryA,f,,,0,2,2,0,0,13,13,4,,,,,,,,,,,,,,,,,,,f,1,0.45377825014293194,,,,,,,,,,,,,,,,,,,,,,,,,,,,,,,,,,,,102,002,2021_Sep_22_1523,joplin1,2021.2.3,60.01150734655219,
_train_cond.csv,1 1 0 1 0 0 1 0 1 1,4,categoryB,j,,,0,2,2,0,1,0,14,9,,,,,,,,,,,,,,,,,,,f,0,0.3947724581230432,,,,,,,,,,,,,,,,,,,,,,,,,,,,,,,,,,,,102,002,2021_Sep_22_1523,joplin1,2021.2.3,60.01150734655219,
_train_cond.csv,1 1 1 0 1 1 0 1 1 1,2,categoryB,j,,,0,2,2,0,1,1,15,11,,,,,,,,,,,,,,,,,,,f,0,0.23418029211461544,,,,,,,,,,,,,,,,,,,,,,,,,,,,,,,,,,,,102,002,2021_Sep_22_1523,joplin1,2021.2.3,60.01150734655219,
_train_cond.csv,0 1 1 1 1 1 1 1 1 0,2,categoryB,j,,,0,2,2,0,1,2,16,7,,,,,,,,,,,,,,,,,,,f,0,0.33617766690440476,,,,,,,,,,,,,,,,,,,,,,,,,,,,,,,,,,,,102,002,2021_Sep_22_1523,joplin1,2021.2.3,60.01150734655219,
_train_cond.csv,0 0 1 1 1 1 1 1 0 0,4,categoryB,j,,,0,2,2,0,1,3,17,13,,,,,,,,,,,,,,,,,,,j,1,0.4565894170664251,,,,,,,,,,,,,,,,,,,,,,,,,,,,,,,,,,,,102,002,2021_Sep_22_1523,joplin1,2021.2.3,60.01150734655219,
_train_cond.csv,1 1 1 0 0 0 0 1 1 1,4,categoryB,j,,,0,2,2,0,1,4,18,10,,,,,,,,,,,,,,,,,,,j,1,0.43650570791214705,,,,,,,,,,,,,,,,,,,,,,,,,,,,,,,,,,,,102,002,2021_Sep_22_1523,joplin1,2021.2.3,60.01150734655219,
_train_cond.csv,0 0 0 1 1 1 1 0 0 0,6,categoryA,f,,,0,2,2,0,1,5,19,3,,,,,,,,,,,,,,,,,,,j,0,0.39420858304947615,,,,,,,,,,,,,,,,,,,,,,,,,,,,,,,,,,,,102,002,2021_Sep_22_1523,joplin1,2021.2.3,60.01150734655219,
_train_cond.csv,0 0 1 0 1 1 0 1 0 0,6,categoryA,f,,,0,2,2,0,1,6,20,2,,,,,,,,,,,,,,,,,,,f,1,0.7058553749229759,,,,,,,,,,,,,,,,,,,,,,,,,,,,,,,,,,,,102,002,2021_Sep_22_1523,joplin1,2021.2.3,60.01150734655219,
_train_cond.csv,0 0 1 0 0 0 0 1 0 0,8,categoryA,f,,,0,2,2,0,1,7,21,5,,,,,,,,,,,,,,,,,,,f,1,0.29189420910552144,,,,,,,,,,,,,,,,,,,,,,,,,,,,,,,,,,,,102,002,2021_Sep_22_1523,joplin1,2021.2.3,60.01150734655219,
_train_cond.csv,1 0 0 0 0 0 0 0 0 1,8,categoryA,f,,,0,2,2,0,1,8,22,0,,,,,,,,,,,,,,,,,,,f,1,0.47059004195034504,,,,,,,,,,,,,,,,,,,,,,,,,,,,,,,,,,,,102,002,2021_Sep_22_1523,joplin1,2021.2.3,60.01150734655219,
_train_cond.csv,1 1 0 0 0 0 0 0 1 1,6,categoryA,f,,,0,2,2,0,1,9,23,6,,,,,,,,,,,,,,,,,,,f,1,0.0908353328704834,,,,,,,,,,,,,,,,,,,,,,,,,,,,,,,,,,,,102,002,2021_Sep_22_1523,joplin1,2021.2.3,60.01150734655219,
_train_cond.csv,0 1 0 0 0 0 0 0 1 0,8,categoryA,f,,,0,2,2,0,1,10,24,1,,,,,,,,,,,,,,,,,,,j,0,0.7665805830620229,,,,,,,,,,,,,,,,,,,,,,,,,,,,,,,,,,,,102,002,2021_Sep_22_1523,joplin1,2021.2.3,60.01150734655219,
_train_cond.csv,1 1 0 1 1 1 1 0 1 1,2,categoryB,j,,,0,2,2,0,1,11,25,12,,,,,,,,,,,,,,,,,,,f,0,0.4078167912084609,,,,,,,,,,,,,,,,,,,,,,,,,,,,,,,,,,,,102,002,2021_Sep_22_1523,joplin1,2021.2.3,60.01150734655219,
_train_cond.csv,0 0 0 1 0 0 1 0 0 0,8,categoryA,f,,,0,2,2,0,1,12,26,4,,,,,,,,,,,,,,,,,,,f,1,0.40526875015348196,,,,,,,,,,,,,,,,,,,,,,,,,,,,,,,,,,,,102,002,2021_Sep_22_1523,joplin1,2021.2.3,60.01150734655219,
_train_cond.csv,1 0 1 1 1 1 1 1 0 1,2,categoryB,j,,,0,2,2,0,1,13,27,8,,,,,,,,,,,,,,,,,,,f,0,0.31455695792101324,,,,,,,,,,,,,,,,,,,,,,,,,,,,,,,,,,,,102,002,2021_Sep_22_1523,joplin1,2021.2.3,60.01150734655219,
_train_cond.csv,0 1 1 1 1 1 1 1 1 0,2,categoryB,j,,,0,2,2,0,2,0,28,7,,,,,,,,,,,,,,,,,,,j,1,0.5721437919419259,,,,,,,,,,,,,,,,,,,,,,,,,,,,,,,,,,,,102,002,2021_Sep_22_1523,joplin1,2021.2.3,60.01150734655219,
_train_cond.csv,0 0 0 1 1 1 1 0 0 0,6,categoryA,f,,,0,2,2,0,2,1,29,3,,,,,,,,,,,,,,,,,,,f,1,0.7638293330091983,,,,,,,,,,,,,,,,,,,,,,,,,,,,,,,,,,,,102,002,2021_Sep_22_1523,joplin1,2021.2.3,60.01150734655219,
_train_cond.csv,0 1 0 0 0 0 0 0 1 0,8,categoryA,f,,,0,2,2,0,2,2,30,1,,,,,,,,,,,,,,,,,,,j,0,0.5165769159793854,,,,,,,,,,,,,,,,,,,,,,,,,,,,,,,,,,,,102,002,2021_Sep_22_1523,joplin1,2021.2.3,60.01150734655219,
_train_cond.csv,1 1 0 0 0 0 0 0 1 1,6,categoryA,f,,,0,2,2,0,2,3,31,6,,,,,,,,,,,,,,,,,,,f,1,0.4378495418932289,,,,,,,,,,,,,,,,,,,,,,,,,,,,,,,,,,,,102,002,2021_Sep_22_1523,joplin1,2021.2.3,60.01150734655219,
_train_cond.csv,1 0 1 1 1 1 1 1 0 1,2,categoryB,j,,,0,2,2,0,2,4,32,8,,,,,,,,,,,,,,,,,,,f,0,0.586695833131671,,,,,,,,,,,,,,,,,,,,,,,,,,,,,,,,,,,,102,002,2021_Sep_22_1523,joplin1,2021.2.3,60.01150734655219,
_train_cond.csv,1 1 1 0 1 1 0 1 1 1,2,categoryB,j,,,0,2,2,0,2,5,33,11,,,,,,,,,,,,,,,,,,,j,1,0.35356612503528595,,,,,,,,,,,,,,,,,,,,,,,,,,,,,,,,,,,,102,002,2021_Sep_22_1523,joplin1,2021.2.3,60.01150734655219,
_train_cond.csv,0 0 1 0 0 0 0 1 0 0,8,categoryA,f,,,0,2,2,0,2,6,34,5,,,,,,,,,,,,,,,,,,,j,0,0.45684320805594325,,,,,,,,,,,,,,,,,,,,,,,,,,,,,,,,,,,,102,002,2021_Sep_22_1523,joplin1,2021.2.3,60.01150734655219,
_train_cond.csv,1 0 0 0 0 0 0 0 0 1,8,categoryA,f,,,0,2,2,0,2,7,35,0,,,,,,,,,,,,,,,,,,,f,1,0.39657487510703504,,,,,,,,,,,,,,,,,,,,,,,,,,,,,,,,,,,,102,002,2021_Sep_22_1523,joplin1,2021.2.3,60.01150734655219,
_train_cond.csv,0 0 0 1 0 0 1 0 0 0,8,categoryA,f,,,0,2,2,0,2,8,36,4,,,,,,,,,,,,,,,,,,,f,1,0.2596368750091642,,,,,,,,,,,,,,,,,,,,,,,,,,,,,,,,,,,,102,002,2021_Sep_22_1523,joplin1,2021.2.3,60.01150734655219,
_train_cond.csv,0 0 1 0 1 1 0 1 0 0,6,categoryA,f,,,0,2,2,0,2,9,37,2,,,,,,,,,,,,,,,,,,,f,1,0.03288833308033645,,,,,,,,,,,,,,,,,,,,,,,,,,,,,,,,,,,,102,002,2021_Sep_22_1523,joplin1,2021.2.3,60.01150734655219,
_train_cond.csv,1 1 0 1 1 1 1 0 1 1,2,categoryB,j,,,0,2,2,0,2,10,38,12,,,,,,,,,,,,,,,,,,,j,1,0.3188919161912054,,,,,,,,,,,,,,,,,,,,,,,,,,,,,,,,,,,,102,002,2021_Sep_22_1523,joplin1,2021.2.3,60.01150734655219,
_train_cond.csv,1 1 0 1 0 0 1 0 1 1,4,categoryB,j,,,0,2,2,0,2,11,39,9,,,,,,,,,,,,,,,,,,,f,0,0.18551508407108486,,,,,,,,,,,,,,,,,,,,,,,,,,,,,,,,,,,,102,002,2021_Sep_22_1523,joplin1,2021.2.3,60.01150734655219,
_train_cond.csv,1 1 1 0 0 0 0 1 1 1,4,categoryB,j,,,0,2,2,0,2,12,40,10,,,,,,,,,,,,,,,,,,,f,0,0.19275199994444847,,,,,,,,,,,,,,,,,,,,,,,,,,,,,,,,,,,,102,002,2021_Sep_22_1523,joplin1,2021.2.3,60.01150734655219,
_train_cond.csv,0 0 1 1 1 1 1 1 0 0,4,categoryB,j,,,0,2,2,0,2,13,41,13,,,,,,,,,,,,,,,,,,,j,1,0.09590129205025733,,,,,,,,,,,,,,,,,,,,,,,,,,,,,,,,,,,,102,002,2021_Sep_22_1523,joplin1,2021.2.3,60.01150734655219,
_train_cond.csv,,,,,,,0,2,2,0,,,,,,,,,,,,,,,,,,,,,,,,,,space,2.2099806249607354,,,,,,,,,,,,,,,,,,,,,,,,,,,,,,,,,,102,002,2021_Sep_22_1523,joplin1,2021.2.3,60.01150734655219,
_train_cond.csv,0 0 1 0 0 0 0 1 0 0,8,categoryA,f,,,0,3,3,6,0,0,0,5,,,,,,,,,,,,,,,,,,,f,1,0.43136262497864664,,,,,,,,,,,,,,,,,,,,,,,,,,,,,,,,,,,,102,002,2021_Sep_22_1523,joplin1,2021.2.3,60.01150734655219,
_train_cond.csv,0 1 0 0 0 0 0 0 1 0,8,categoryA,f,,,0,3,3,6,0,1,1,1,,,,,,,,,,,,,,,,,,,f,1,0.49323216709308326,,,,,,,,,,,,,,,,,,,,,,,,,,,,,,,,,,,,102,002,2021_Sep_22_1523,joplin1,2021.2.3,60.01150734655219,
_train_cond.csv,0 0 0 1 1 1 1 0 0 0,6,categoryA,f,,,0,3,3,6,0,2,2,3,,,,,,,,,,,,,,,,,,,j,0,0.24075237521901727,,,,,,,,,,,,,,,,,,,,,,,,,,,,,,,,,,,,102,002,2021_Sep_22_1523,joplin1,2021.2.3,60.01150734655219,
_train_cond.csv,0 0 1 0 1 1 0 1 0 0,6,categoryA,f,,,0,3,3,6,0,3,3,2,,,,,,,,,,,,,,,,,,,f,1,0.3971610830631107,,,,,,,,,,,,,,,,,,,,,,,,,,,,,,,,,,,,102,002,2021_Sep_22_1523,joplin1,2021.2.3,60.01150734655219,
_train_cond.csv,0 0 0 1 0 0 1 0 0 0,8,categoryA,f,,,0,3,3,6,0,4,4,4,,,,,,,,,,,,,,,,,,,f,1,0.7811120830010623,,,,,,,,,,,,,,,,,,,,,,,,,,,,,,,,,,,,102,002,2021_Sep_22_1523,joplin1,2021.2.3,60.01150734655219,
_train_cond.csv,1 1 0 0 0 0 0 0 1 1,6,categoryA,f,,,0,3,3,6,0,5,5,6,,,,,,,,,,,,,,,,,,,f,1,0.7486892079468817,,,,,,,,,,,,,,,,,,,,,,,,,,,,,,,,,,,,102,002,2021_Sep_22_1523,joplin1,2021.2.3,60.01150734655219,
_train_cond.csv,1 1 1 0 1 1 0 1 1 1,2,categoryB,j,,,0,3,3,6,0,6,6,11,,,,,,,,,,,,,,,,,,,j,1,0.56646120804362,,,,,,,,,,,,,,,,,,,,,,,,,,,,,,,,,,,,102,002,2021_Sep_22_1523,joplin1,2021.2.3,60.01150734655219,
_train_cond.csv,1 1 1 0 0 0 0 1 1 1,4,categoryB,j,,,0,3,3,6,0,7,7,10,,,,,,,,,,,,,,,,,,,f,0,0.6873327090870589,,,,,,,,,,,,,,,,,,,,,,,,,,,,,,,,,,,,102,002,2021_Sep_22_1523,joplin1,2021.2.3,60.01150734655219,
_train_cond.csv,1 0 1 1 1 1 1 1 0 1,2,categoryB,j,,,0,3,3,6,0,8,8,8,,,,,,,,,,,,,,,,,,,j,1,0.2737631250638515,,,,,,,,,,,,,,,,,,,,,,,,,,,,,,,,,,,,102,002,2021_Sep_22_1523,joplin1,2021.2.3,60.01150734655219,
_train_cond.csv,0 0 1 1 1 1 1 1 0 0,4,categoryB,j,,,0,3,3,6,0,9,9,13,,,,,,,,,,,,,,,,,,,j,1,0.5421673748642206,,,,,,,,,,,,,,,,,,,,,,,,,,,,,,,,,,,,102,002,2021_Sep_22_1523,joplin1,2021.2.3,60.01150734655219,
_train_cond.csv,0 1 1 1 1 1 1 1 1 0,2,categoryB,j,,,0,3,3,6,0,10,10,7,,,,,,,,,,,,,,,,,,,j,1,0.49463020800612867,,,,,,,,,,,,,,,,,,,,,,,,,,,,,,,,,,,,102,002,2021_Sep_22_1523,joplin1,2021.2.3,60.01150734655219,
_train_cond.csv,1 1 0 1 1 1 1 0 1 1,2,categoryB,j,,,0,3,3,6,0,11,11,12,,,,,,,,,,,,,,,,,,,j,1,0.8506355409044772,,,,,,,,,,,,,,,,,,,,,,,,,,,,,,,,,,,,102,002,2021_Sep_22_1523,joplin1,2021.2.3,60.01150734655219,
_train_cond.csv,1 0 0 0 0 0 0 0 0 1,8,categoryA,f,,,0,3,3,6,0,12,12,0,,,,,,,,,,,,,,,,,,,f,1,0.48693533381447196,,,,,,,,,,,,,,,,,,,,,,,,,,,,,,,,,,,,102,002,2021_Sep_22_1523,joplin1,2021.2.3,60.01150734655219,
_train_cond.csv,1 1 0 1 0 0 1 0 1 1,4,categoryB,j,,,0,3,3,6,0,13,13,9,,,,,,,,,,,,,,,,,,,j,1,0.45808999985456467,,,,,,,,,,,,,,,,,,,,,,,,,,,,,,,,,,,,102,002,2021_Sep_22_1523,joplin1,2021.2.3,60.01150734655219,
_train_cond.csv,1 1 0 1 1 1 1 0 1 1,2,categoryB,j,,,0,3,3,6,1,0,14,12,,,,,,,,,,,,,,,,,,,f,0,0.4780869579408318,,,,,,,,,,,,,,,,,,,,,,,,,,,,,,,,,,,,102,002,2021_Sep_22_1523,joplin1,2021.2.3,60.01150734655219,
_train_cond.csv,1 0 1 1 1 1 1 1 0 1,2,categoryB,j,,,0,3,3,6,1,1,15,8,,,,,,,,,,,,,,,,,,,f,0,0.4981677499599755,,,,,,,,,,,,,,,,,,,,,,,,,,,,,,,,,,,,102,002,2021_Sep_22_1523,joplin1,2021.2.3,60.01150734655219,
_train_cond.csv,1 1 0 0 0 0 0 0 1 1,6,categoryA,f,,,0,3,3,6,1,2,16,6,,,,,,,,,,,,,,,,,,,f,1,1.0932617920916528,,,,,,,,,,,,,,,,,,,,,,,,,,,,,,,,,,,,102,002,2021_Sep_22_1523,joplin1,2021.2.3,60.01150734655219,
_train_cond.csv,1 0 0 0 0 0 0 0 0 1,8,categoryA,f,,,0,3,3,6,1,3,17,0,,,,,,,,,,,,,,,,,,,f,1,0.5757991671562195,,,,,,,,,,,,,,,,,,,,,,,,,,,,,,,,,,,,102,002,2021_Sep_22_1523,joplin1,2021.2.3,60.01150734655219,
_train_cond.csv,1 1 1 0 0 0 0 1 1 1,4,categoryB,j,,,0,3,3,6,1,4,18,10,,,,,,,,,,,,,,,,,,,f,0,0.5760530829429626,,,,,,,,,,,,,,,,,,,,,,,,,,,,,,,,,,,,102,002,2021_Sep_22_1523,joplin1,2021.2.3,60.01150734655219,
_train_cond.csv,0 0 0 1 0 0 1 0 0 0,8,categoryA,f,,,0,3,3,6,1,5,19,4,,,,,,,,,,,,,,,,,,,j,0,1.7196824168786407,,,,,,,,,,,,,,,,,,,,,,,,,,,,,,,,,,,,102,002,2021_Sep_22_1523,joplin1,2021.2.3,60.01150734655219,
_train_cond.csv,0 1 0 0 0 0 0 0 1 0,8,categoryA,f,,,0,3,3,6,1,6,20,1,,,,,,,,,,,,,,,,,,,f,1,0.05728883412666619,,,,,,,,,,,,,,,,,,,,,,,,,,,,,,,,,,,,102,002,2021_Sep_22_1523,joplin1,2021.2.3,60.01150734655219,
_train_cond.csv,0 0 0 1 1 1 1 0 0 0,6,categoryA,f,,,0,3,3,6,1,7,21,3,,,,,,,,,,,,,,,,,,,f,1,0.04473700001835823,,,,,,,,,,,,,,,,,,,,,,,,,,,,,,,,,,,,102,002,2021_Sep_22_1523,joplin1,2021.2.3,60.01150734655219,
_train_cond.csv,1 1 1 0 1 1 0 1 1 1,2,categoryB,j,,,0,3,3,6,1,8,22,11,,,,,,,,,,,,,,,,,,,f,0,0.28267312492243946,,,,,,,,,,,,,,,,,,,,,,,,,,,,,,,,,,,,102,002,2021_Sep_22_1523,joplin1,2021.2.3,60.01150734655219,
_train_cond.csv,0 0 1 0 1 1 0 1 0 0,6,categoryA,f,,,0,3,3,6,1,9,23,2,,,,,,,,,,,,,,,,,,,j,0,0.38987887487746775,,,,,,,,,,,,,,,,,,,,,,,,,,,,,,,,,,,,102,002,2021_Sep_22_1523,joplin1,2021.2.3,60.01150734655219,
_train_cond.csv,1 1 0 1 0 0 1 0 1 1,4,categoryB,j,,,0,3,3,6,1,10,24,9,,,,,,,,,,,,,,,,,,,j,1,0.644379457924515,,,,,,,,,,,,,,,,,,,,,,,,,,,,,,,,,,,,102,002,2021_Sep_22_1523,joplin1,2021.2.3,60.01150734655219,
_train_cond.csv,0 0 1 1 1 1 1 1 0 0,4,categoryB,j,,,0,3,3,6,1,11,25,13,,,,,,,,,,,,,,,,,,,f,0,0.31397749995812774,,,,,,,,,,,,,,,,,,,,,,,,,,,,,,,,,,,,102,002,2021_Sep_22_1523,joplin1,2021.2.3,60.01150734655219,
_train_cond.csv,0 1 1 1 1 1 1 1 1 0,2,categoryB,j,,,0,3,3,6,1,12,26,7,,,,,,,,,,,,,,,,,,,j,1,0.24280900019221008,,,,,,,,,,,,,,,,,,,,,,,,,,,,,,,,,,,,102,002,2021_Sep_22_1523,joplin1,2021.2.3,60.01150734655219,
_train_cond.csv,0 0 1 0 0 0 0 1 0 0,8,categoryA,f,,,0,3,3,6,1,13,27,5,,,,,,,,,,,,,,,,,,,j,0,0.5354937498923391,,,,,,,,,,,,,,,,,,,,,,,,,,,,,,,,,,,,102,002,2021_Sep_22_1523,joplin1,2021.2.3,60.01150734655219,
_train_cond.csv,0 0 1 0 1 1 0 1 0 0,6,categoryA,f,,,0,3,3,6,2,0,28,2,,,,,,,,,,,,,,,,,,,f,1,0.36104658409021795,,,,,,,,,,,,,,,,,,,,,,,,,,,,,,,,,,,,102,002,2021_Sep_22_1523,joplin1,2021.2.3,60.01150734655219,
_train_cond.csv,1 1 0 0 0 0 0 0 1 1,6,categoryA,f,,,0,3,3,6,2,1,29,6,,,,,,,,,,,,,,,,,,,f,1,0.3766494579613209,,,,,,,,,,,,,,,,,,,,,,,,,,,,,,,,,,,,102,002,2021_Sep_22_1523,joplin1,2021.2.3,60.01150734655219,
_train_cond.csv,0 0 0 1 0 0 1 0 0 0,8,categoryA,f,,,0,3,3,6,2,2,30,4,,,,,,,,,,,,,,,,,,,f,1,0.24055900005623698,,,,,,,,,,,,,,,,,,,,,,,,,,,,,,,,,,,,102,002,2021_Sep_22_1523,joplin1,2021.2.3,60.01150734655219,
_train_cond.csv,1 1 0 1 1 1 1 0 1 1,2,categoryB,j,,,0,3,3,6,2,3,31,12,,,,,,,,,,,,,,,,,,,j,1,0.05417370796203613,,,,,,,,,,,,,,,,,,,,,,,,,,,,,,,,,,,,102,002,2021_Sep_22_1523,joplin1,2021.2.3,60.01150734655219,
_train_cond.csv,0 1 0 0 0 0 0 0 1 0,8,categoryA,f,,,0,3,3,6,2,4,32,1,,,,,,,,,,,,,,,,,,,j,0,0.25061649992130697,,,,,,,,,,,,,,,,,,,,,,,,,,,,,,,,,,,,102,002,2021_Sep_22_1523,joplin1,2021.2.3,60.01150734655219,
_train_cond.csv,0 0 0 1 1 1 1 0 0 0,6,categoryA,f,,,0,3,3,6,2,5,33,3,,,,,,,,,,,,,,,,,,,f,1,0.7268287499900907,,,,,,,,,,,,,,,,,,,,,,,,,,,,,,,,,,,,102,002,2021_Sep_22_1523,joplin1,2021.2.3,60.01150734655219,
_train_cond.csv,0 0 1 0 0 0 0 1 0 0,8,categoryA,f,,,0,3,3,6,2,6,34,5,,,,,,,,,,,,,,,,,,,j,0,0.38439037511125207,,,,,,,,,,,,,,,,,,,,,,,,,,,,,,,,,,,,102,002,2021_Sep_22_1523,joplin1,2021.2.3,60.01150734655219,
_train_cond.csv,0 1 1 1 1 1 1 1 1 0,2,categoryB,j,,,0,3,3,6,2,7,35,7,,,,,,,,,,,,,,,,,,,f,0,0.35150491702370346,,,,,,,,,,,,,,,,,,,,,,,,,,,,,,,,,,,,102,002,2021_Sep_22_1523,joplin1,2021.2.3,60.01150734655219,
_train_cond.csv,1 1 1 0 1 1 0 1 1 1,2,categoryB,j,,,0,3,3,6,2,8,36,11,,,,,,,,,,,,,,,,,,,f,0,0.3363944578450173,,,,,,,,,,,,,,,,,,,,,,,,,,,,,,,,,,,,102,002,2021_Sep_22_1523,joplin1,2021.2.3,60.01150734655219,
_train_cond.csv,1 0 0 0 0 0 0 0 0 1,8,categoryA,f,,,0,3,3,6,2,9,37,0,,,,,,,,,,,,,,,,,,,j,0,0.3215198749676347,,,,,,,,,,,,,,,,,,,,,,,,,,,,,,,,,,,,102,002,2021_Sep_22_1523,joplin1,2021.2.3,60.01150734655219,
_train_cond.csv,1 0 1 1 1 1 1 1 0 1,2,categoryB,j,,,0,3,3,6,2,10,38,8,,,,,,,,,,,,,,,,,,,j,1,0.23538329196162522,,,,,,,,,,,,,,,,,,,,,,,,,,,,,,,,,,,,102,002,2021_Sep_22_1523,joplin1,2021.2.3,60.01150734655219,
_train_cond.csv,1 1 0 1 0 0 1 0 1 1,4,categoryB,j,,,0,3,3,6,2,11,39,9,,,,,,,,,,,,,,,,,,,f,0,0.40112708299420774,,,,,,,,,,,,,,,,,,,,,,,,,,,,,,,,,,,,102,002,2021_Sep_22_1523,joplin1,2021.2.3,60.01150734655219,
_train_cond.csv,1 1 1 0 0 0 0 1 1 1,4,categoryB,j,,,0,3,3,6,2,12,40,10,,,,,,,,,,,,,,,,,,,j,1,0.63202662486583,,,,,,,,,,,,,,,,,,,,,,,,,,,,,,,,,,,,102,002,2021_Sep_22_1523,joplin1,2021.2.3,60.01150734655219,
_train_cond.csv,0 0 1 1 1 1 1 1 0 0,4,categoryB,j,,,0,3,3,6,2,13,41,13,,,,,,,,,,,,,,,,,,,f,0,0.5900554999243468,,,,,,,,,,,,,,,,,,,,,,,,,,,,,,,,,,,,102,002,2021_Sep_22_1523,joplin1,2021.2.3,60.01150734655219,
_train_cond.csv,,,,,,,0,3,3,6,,,,,,,,,,,,,,,,,,,,,,,,,,space,2.1068007920403033,,,,,,,,,,,,,,,,,,,,,,,,,,,,,,,,,,102,002,2021_Sep_22_1523,joplin1,2021.2.3,60.01150734655219,
_train_cond.csv,1 1 0 0 0 0 0 0 1 1,6,categoryA,f,,,0,4,4,3,0,0,0,6,,,,,,,,,,,,,,,,,,,f,1,0.4932802910916507,,,,,,,,,,,,,,,,,,,,,,,,,,,,,,,,,,,,102,002,2021_Sep_22_1523,joplin1,2021.2.3,60.01150734655219,
_train_cond.csv,0 1 0 0 0 0 0 0 1 0,8,categoryA,f,,,0,4,4,3,0,1,1,1,,,,,,,,,,,,,,,,,,,f,1,0.52071962505579,,,,,,,,,,,,,,,,,,,,,,,,,,,,,,,,,,,,102,002,2021_Sep_22_1523,joplin1,2021.2.3,60.01150734655219,
_train_cond.csv,0 0 0 1 0 0 1 0 0 0,8,categoryA,f,,,0,4,4,3,0,2,2,4,,,,,,,,,,,,,,,,,,,j,0,0.0516054998151958,,,,,,,,,,,,,,,,,,,,,,,,,,,,,,,,,,,,102,002,2021_Sep_22_1523,joplin1,2021.2.3,60.01150734655219,
_train_cond.csv,1 0 0 0 0 0 0 0 0 1,8,categoryA,f,,,0,4,4,3,0,3,3,0,,,,,,,,,,,,,,,,,,,f,1,0.6386970409657806,,,,,,,,,,,,,,,,,,,,,,,,,,,,,,,,,,,,102,002,2021_Sep_22_1523,joplin1,2021.2.3,60.01150734655219,
_train_cond.csv,0 0 1 1 1 1 1 1 0 0,4,categoryB,j,,,0,4,4,3,0,4,4,13,,,,,,,,,,,,,,,,,,,f,0,0.39664329099468887,,,,,,,,,,,,,,,,,,,,,,,,,,,,,,,,,,,,102,002,2021_Sep_22_1523,joplin1,2021.2.3,60.01150734655219,
_train_cond.csv,0 0 1 0 0 0 0 1 0 0,8,categoryA,f,,,0,4,4,3,0,5,5,5,,,,,,,,,,,,,,,,,,,j,0,0.33853162499144673,,,,,,,,,,,,,,,,,,,,,,,,,,,,,,,,,,,,102,002,2021_Sep_22_1523,joplin1,2021.2.3,60.01150734655219,
_train_cond.csv,0 0 0 1 1 1 1 0 0 0,6,categoryA,f,,,0,4,4,3,0,6,6,3,,,,,,,,,,,,,,,,,,,j,0,0.46874783420935273,,,,,,,,,,,,,,,,,,,,,,,,,,,,,,,,,,,,102,002,2021_Sep_22_1523,joplin1,2021.2.3,60.01150734655219,
_train_cond.csv,0 0 1 0 1 1 0 1 0 0,6,categoryA,f,,,0,4,4,3,0,7,7,2,,,,,,,,,,,,,,,,,,,j,0,0.6158602500800043,,,,,,,,,,,,,,,,,,,,,,,,,,,,,,,,,,,,102,002,2021_Sep_22_1523,joplin1,2021.2.3,60.01150734655219,
_train_cond.csv,1 1 1 0 0 0 0 1 1 1,4,categoryB,j,,,0,4,4,3,0,8,8,10,,,,,,,,,,,,,,,,,,,f,0,0.06350887520238757,,,,,,,,,,,,,,,,,,,,,,,,,,,,,,,,,,,,102,002,2021_Sep_22_1523,joplin1,2021.2.3,60.01150734655219,
_train_cond.csv,1 1 0 1 0 0 1 0 1 1,4,categoryB,j,,,0,4,4,3,0,9,9,9,,,,,,,,,,,,,,,,,,,f,0,0.53223079117015,,,,,,,,,,,,,,,,,,,,,,,,,,,,,,,,,,,,102,002,2021_Sep_22_1523,joplin1,2021.2.3,60.01150734655219,
_train_cond.csv,1 1 1 0 1 1 0 1 1 1,2,categoryB,j,,,0,4,4,3,0,10,10,11,,,,,,,,,,,,,,,,,,,f,0,0.6844664588570595,,,,,,,,,,,,,,,,,,,,,,,,,,,,,,,,,,,,102,002,2021_Sep_22_1523,joplin1,2021.2.3,60.01150734655219,
_train_cond.csv,0 1 1 1 1 1 1 1 1 0,2,categoryB,j,,,0,4,4,3,0,11,11,7,,,,,,,,,,,,,,,,,,,f,0,0.6901028749998659,,,,,,,,,,,,,,,,,,,,,,,,,,,,,,,,,,,,102,002,2021_Sep_22_1523,joplin1,2021.2.3,60.01150734655219,
_train_cond.csv,1 1 0 1 1 1 1 0 1 1,2,categoryB,j,,,0,4,4,3,0,12,12,12,,,,,,,,,,,,,,,,,,,f,0,0.2212248749565333,,,,,,,,,,,,,,,,,,,,,,,,,,,,,,,,,,,,102,002,2021_Sep_22_1523,joplin1,2021.2.3,60.01150734655219,
_train_cond.csv,1 0 1 1 1 1 1 1 0 1,2,categoryB,j,,,0,4,4,3,0,13,13,8,,,,,,,,,,,,,,,,,,,f,0,0.32261350005865097,,,,,,,,,,,,,,,,,,,,,,,,,,,,,,,,,,,,102,002,2021_Sep_22_1523,joplin1,2021.2.3,60.01150734655219,
_train_cond.csv,0 0 1 1 1 1 1 1 0 0,4,categoryB,j,,,0,4,4,3,1,0,14,13,,,,,,,,,,,,,,,,,,,j,1,0.47679987479932606,,,,,,,,,,,,,,,,,,,,,,,,,,,,,,,,,,,,102,002,2021_Sep_22_1523,joplin1,2021.2.3,60.01150734655219,
_train_cond.csv,1 1 0 0 0 0 0 0 1 1,6,categoryA,f,,,0,4,4,3,1,1,15,6,,,,,,,,,,,,,,,,,,,f,1,0.14437995897606015,,,,,,,,,,,,,,,,,,,,,,,,,,,,,,,,,,,,102,002,2021_Sep_22_1523,joplin1,2021.2.3,60.01150734655219,
_train_cond.csv,0 1 0 0 0 0 0 0 1 0,8,categoryA,f,,,0,4,4,3,1,2,16,1,,,,,,,,,,,,,,,,,,,f,1,0.49640287505462766,,,,,,,,,,,,,,,,,,,,,,,,,,,,,,,,,,,,102,002,2021_Sep_22_1523,joplin1,2021.2.3,60.01150734655219,
_train_cond.csv,0 0 1 0 0 0 0 1 0 0,8,categoryA,f,,,0,4,4,3,1,3,17,5,,,,,,,,,,,,,,,,,,,f,1,0.44436741597019136,,,,,,,,,,,,,,,,,,,,,,,,,,,,,,,,,,,,102,002,2021_Sep_22_1523,joplin1,2021.2.3,60.01150734655219,
_train_cond.csv,1 1 0 1 0 0 1 0 1 1,4,categoryB,j,,,0,4,4,3,1,4,18,9,,,,,,,,,,,,,,,,,,,f,0,0.4248597091063857,,,,,,,,,,,,,,,,,,,,,,,,,,,,,,,,,,,,102,002,2021_Sep_22_1523,joplin1,2021.2.3,60.01150734655219,
_train_cond.csv,1 1 0 1 1 1 1 0 1 1,2,categoryB,j,,,0,4,4,3,1,5,19,12,,,,,,,,,,,,,,,,,,,f,0,0.5106784170493484,,,,,,,,,,,,,,,,,,,,,,,,,,,,,,,,,,,,102,002,2021_Sep_22_1523,joplin1,2021.2.3,60.01150734655219,
_train_cond.csv,1 0 0 0 0 0 0 0 0 1,8,categoryA,f,,,0,4,4,3,1,6,20,0,,,,,,,,,,,,,,,,,,,j,0,0.6575555421877652,,,,,,,,,,,,,,,,,,,,,,,,,,,,,,,,,,,,102,002,2021_Sep_22_1523,joplin1,2021.2.3,60.01150734655219,
_train_cond.csv,1 0 1 1 1 1 1 1 0 1,2,categoryB,j,,,0,4,4,3,1,7,21,8,,,,,,,,,,,,,,,,,,,f,0,0.4456111250910908,,,,,,,,,,,,,,,,,,,,,,,,,,,,,,,,,,,,102,002,2021_Sep_22_1523,joplin1,2021.2.3,60.01150734655219,
_train_cond.csv,0 1 1 1 1 1 1 1 1 0,2,categoryB,j,,,0,4,4,3,1,8,22,7,,,,,,,,,,,,,,,,,,,j,1,0.8823145420756191,,,,,,,,,,,,,,,,,,,,,,,,,,,,,,,,,,,,102,002,2021_Sep_22_1523,joplin1,2021.2.3,60.01150734655219,
_train_cond.csv,0 0 0 1 0 0 1 0 0 0,8,categoryA,f,,,0,4,4,3,1,9,23,4,,,,,,,,,,,,,,,,,,,f,1,0.6240002079866827,,,,,,,,,,,,,,,,,,,,,,,,,,,,,,,,,,,,102,002,2021_Sep_22_1523,joplin1,2021.2.3,60.01150734655219,
_train_cond.csv,0 0 0 1 1 1 1 0 0 0,6,categoryA,f,,,0,4,4,3,1,10,24,3,,,,,,,,,,,,,,,,,,,j,0,0.7562885831575841,,,,,,,,,,,,,,,,,,,,,,,,,,,,,,,,,,,,102,002,2021_Sep_22_1523,joplin1,2021.2.3,60.01150734655219,
_train_cond.csv,0 0 1 0 1 1 0 1 0 0,6,categoryA,f,,,0,4,4,3,1,11,25,2,,,,,,,,,,,,,,,,,,,f,1,0.6519353750627488,,,,,,,,,,,,,,,,,,,,,,,,,,,,,,,,,,,,102,002,2021_Sep_22_1523,joplin1,2021.2.3,60.01150734655219,
_train_cond.csv,1 1 1 0 1 1 0 1 1 1,2,categoryB,j,,,0,4,4,3,1,12,26,11,,,,,,,,,,,,,,,,,,,j,1,1.057934416923672,,,,,,,,,,,,,,,,,,,,,,,,,,,,,,,,,,,,102,002,2021_Sep_22_1523,joplin1,2021.2.3,60.01150734655219,
_train_cond.csv,1 1 1 0 0 0 0 1 1 1,4,categoryB,j,,,0,4,4,3,1,13,27,10,,,,,,,,,,,,,,,,,,,j,1,0.3655015828553587,,,,,,,,,,,,,,,,,,,,,,,,,,,,,,,,,,,,102,002,2021_Sep_22_1523,joplin1,2021.2.3,60.01150734655219,
_train_cond.csv,1 1 1 0 1 1 0 1 1 1,2,categoryB,j,,,0,4,4,3,2,0,28,11,,,,,,,,,,,,,,,,,,,f,0,0.11802354082465172,,,,,,,,,,,,,,,,,,,,,,,,,,,,,,,,,,,,102,002,2021_Sep_22_1523,joplin1,2021.2.3,60.01150734655219,
_train_cond.csv,0 0 1 1 1 1 1 1 0 0,4,categoryB,j,,,0,4,4,3,2,1,29,13,,,,,,,,,,,,,,,,,,,f,0,0.5283006669487804,,,,,,,,,,,,,,,,,,,,,,,,,,,,,,,,,,,,102,002,2021_Sep_22_1523,joplin1,2021.2.3,60.01150734655219,
_train_cond.csv,1 0 1 1 1 1 1 1 0 1,2,categoryB,j,,,0,4,4,3,2,2,30,8,,,,,,,,,,,,,,,,,,,f,0,0.3288963751401752,,,,,,,,,,,,,,,,,,,,,,,,,,,,,,,,,,,,102,002,2021_Sep_22_1523,joplin1,2021.2.3,60.01150734655219,
_train_cond.csv,1 1 0 1 1 1 1 0 1 1,2,categoryB,j,,,0,4,4,3,2,3,31,12,,,,,,,,,,,,,,,,,,,j,1,0.18041037488728762,,,,,,,,,,,,,,,,,,,,,,,,,,,,,,,,,,,,102,002,2021_Sep_22_1523,joplin1,2021.2.3,60.01150734655219,
_train_cond.csv,0 0 0 1 1 1 1 0 0 0,6,categoryA,f,,,0,4,4,3,2,4,32,3,,,,,,,,,,,,,,,,,,,j,0,0.4604952500667423,,,,,,,,,,,,,,,,,,,,,,,,,,,,,,,,,,,,102,002,2021_Sep_22_1523,joplin1,2021.2.3,60.01150734655219,
_train_cond.csv,0 1 1 1 1 1 1 1 1 0,2,categoryB,j,,,0,4,4,3,2,5,33,7,,,,,,,,,,,,,,,,,,,f,0,0.5994977920781821,,,,,,,,,,,,,,,,,,,,,,,,,,,,,,,,,,,,102,002,2021_Sep_22_1523,joplin1,2021.2.3,60.01150734655219,
_train_cond.csv,0 0 0 1 0 0 1 0 0 0,8,categoryA,f,,,0,4,4,3,2,6,34,4,,,,,,,,,,,,,,,,,,,j,0,0.3668642919510603,,,,,,,,,,,,,,,,,,,,,,,,,,,,,,,,,,,,102,002,2021_Sep_22_1523,joplin1,2021.2.3,60.01150734655219,
_train_cond.csv,1 0 0 0 0 0 0 0 0 1,8,categoryA,f,,,0,4,4,3,2,7,35,0,,,,,,,,,,,,,,,,,,,f,1,0.3583867501001805,,,,,,,,,,,,,,,,,,,,,,,,,,,,,,,,,,,,102,002,2021_Sep_22_1523,joplin1,2021.2.3,60.01150734655219,
_train_cond.csv,1 1 0 1 0 0 1 0 1 1,4,categoryB,j,,,0,4,4,3,2,8,36,9,,,,,,,,,,,,,,,,,,,f,0,0.6146545419469476,,,,,,,,,,,,,,,,,,,,,,,,,,,,,,,,,,,,102,002,2021_Sep_22_1523,joplin1,2021.2.3,60.01150734655219,
_train_cond.csv,0 0 1 0 1 1 0 1 0 0,6,categoryA,f,,,0,4,4,3,2,9,37,2,,,,,,,,,,,,,,,,,,,f,1,0.5642524170689285,,,,,,,,,,,,,,,,,,,,,,,,,,,,,,,,,,,,102,002,2021_Sep_22_1523,joplin1,2021.2.3,60.01150734655219,
_train_cond.csv,0 0 1 0 0 0 0 1 0 0,8,categoryA,f,,,0,4,4,3,2,10,38,5,,,,,,,,,,,,,,,,,,,j,0,0.37259283289313316,,,,,,,,,,,,,,,,,,,,,,,,,,,,,,,,,,,,102,002,2021_Sep_22_1523,joplin1,2021.2.3,60.01150734655219,
_train_cond.csv,1 1 0 0 0 0 0 0 1 1,6,categoryA,f,,,0,4,4,3,2,11,39,6,,,,,,,,,,,,,,,,,,,f,1,0.7716647498309612,,,,,,,,,,,,,,,,,,,,,,,,,,,,,,,,,,,,102,002,2021_Sep_22_1523,joplin1,2021.2.3,60.01150734655219,
_train_cond.csv,1 1 1 0 0 0 0 1 1 1,4,categoryB,j,,,0,4,4,3,2,12,40,10,,,,,,,,,,,,,,,,,,,j,1,0.30739712505601346,,,,,,,,,,,,,,,,,,,,,,,,,,,,,,,,,,,,102,002,2021_Sep_22_1523,joplin1,2021.2.3,60.01150734655219,
_train_cond.csv,0 1 0 0 0 0 0 0 1 0,8,categoryA,f,,,0,4,4,3,2,13,41,1,,,,,,,,,,,,,,,,,,,j,0,0.31787733314558864,,,,,,,,,,,,,,,,,,,,,,,,,,,,,,,,,,,,102,002,2021_Sep_22_1523,joplin1,2021.2.3,60.01150734655219,
_train_cond.csv,,,,,,,0,4,4,3,,,,,,,,,,,,,,,,,,,,,,,,,,space,1.343892457894981,,,,,,,,,,,,,,,,,,,,,,,,,,,,,,,,,,102,002,2021_Sep_22_1523,joplin1,2021.2.3,60.01150734655219,
_train_cond.csv,1 1 1 0 0 0 0 1 1 1,4,categoryB,j,,,0,5,5,2,0,0,0,10,,,,,,,,,,,,,,,,,,,f,0,0.44905320880934596,,,,,,,,,,,,,,,,,,,,,,,,,,,,,,,,,,,,102,002,2021_Sep_22_1523,joplin1,2021.2.3,60.01150734655219,
_train_cond.csv,1 1 1 0 1 1 0 1 1 1,2,categoryB,j,,,0,5,5,2,0,1,1,11,,,,,,,,,,,,,,,,,,,j,1,0.5092847920022905,,,,,,,,,,,,,,,,,,,,,,,,,,,,,,,,,,,,102,002,2021_Sep_22_1523,joplin1,2021.2.3,60.01150734655219,
_train_cond.csv,1 1 0 1 1 1 1 0 1 1,2,categoryB,j,,,0,5,5,2,0,2,2,12,,,,,,,,,,,,,,,,,,,j,1,0.21525870799086988,,,,,,,,,,,,,,,,,,,,,,,,,,,,,,,,,,,,102,002,2021_Sep_22_1523,joplin1,2021.2.3,60.01150734655219,
_train_cond.csv,0 0 1 1 1 1 1 1 0 0,4,categoryB,j,,,0,5,5,2,0,3,3,13,,,,,,,,,,,,,,,,,,,f,0,0.6223506671376526,,,,,,,,,,,,,,,,,,,,,,,,,,,,,,,,,,,,102,002,2021_Sep_22_1523,joplin1,2021.2.3,60.01150734655219,
_train_cond.csv,1 0 0 0 0 0 0 0 0 1,8,categoryA,f,,,0,5,5,2,0,4,4,0,,,,,,,,,,,,,,,,,,,j,0,0.684849499957636,,,,,,,,,,,,,,,,,,,,,,,,,,,,,,,,,,,,102,002,2021_Sep_22_1523,joplin1,2021.2.3,60.01150734655219,
_train_cond.csv,0 0 0 1 0 0 1 0 0 0,8,categoryA,f,,,0,5,5,2,0,5,5,4,,,,,,,,,,,,,,,,,,,f,1,0.45555112487636507,,,,,,,,,,,,,,,,,,,,,,,,,,,,,,,,,,,,102,002,2021_Sep_22_1523,joplin1,2021.2.3,60.01150734655219,
_train_cond.csv,0 0 1 0 1 1 0 1 0 0,6,categoryA,f,,,0,5,5,2,0,6,6,2,,,,,,,,,,,,,,,,,,,j,0,0.4043470830656588,,,,,,,,,,,,,,,,,,,,,,,,,,,,,,,,,,,,102,002,2021_Sep_22_1523,joplin1,2021.2.3,60.01150734655219,
_train_cond.csv,0 1 1 1 1 1 1 1 1 0,2,categoryB,j,,,0,5,5,2,0,7,7,7,,,,,,,,,,,,,,,,,,,f,0,0.6649480420164764,,,,,,,,,,,,,,,,,,,,,,,,,,,,,,,,,,,,102,002,2021_Sep_22_1523,joplin1,2021.2.3,60.01150734655219,
_train_cond.csv,1 1 0 0 0 0 0 0 1 1,6,categoryA,f,,,0,5,5,2,0,8,8,6,,,,,,,,,,,,,,,,,,,j,0,0.7571448751259595,,,,,,,,,,,,,,,,,,,,,,,,,,,,,,,,,,,,102,002,2021_Sep_22_1523,joplin1,2021.2.3,60.01150734655219,
_train_cond.csv,0 0 0 1 1 1 1 0 0 0,6,categoryA,f,,,0,5,5,2,0,9,9,3,,,,,,,,,,,,,,,,,,,f,1,0.6132107500452548,,,,,,,,,,,,,,,,,,,,,,,,,,,,,,,,,,,,102,002,2021_Sep_22_1523,joplin1,2021.2.3,60.01150734655219,
_train_cond.csv,0 0 1 0 0 0 0 1 0 0,8,categoryA,f,,,0,5,5,2,0,10,10,5,,,,,,,,,,,,,,,,,,,j,0,1.114846375072375,,,,,,,,,,,,,,,,,,,,,,,,,,,,,,,,,,,,102,002,2021_Sep_22_1523,joplin1,2021.2.3,60.01150734655219,
_train_cond.csv,1 0 1 1 1 1 1 1 0 1,2,categoryB,j,,,0,5,5,2,0,11,11,8,,,,,,,,,,,,,,,,,,,j,1,0.47700720792636275,,,,,,,,,,,,,,,,,,,,,,,,,,,,,,,,,,,,102,002,2021_Sep_22_1523,joplin1,2021.2.3,60.01150734655219,
_train_cond.csv,0 1 0 0 0 0 0 0 1 0,8,categoryA,f,,,0,5,5,2,0,12,12,1,,,,,,,,,,,,,,,,,,,f,1,1.0010215840302408,,,,,,,,,,,,,,,,,,,,,,,,,,,,,,,,,,,,102,002,2021_Sep_22_1523,joplin1,2021.2.3,60.01150734655219,
_train_cond.csv,1 1 0 1 0 0 1 0 1 1,4,categoryB,j,,,0,5,5,2,0,13,13,9,,,,,,,,,,,,,,,,,,,j,1,0.9682516669854522,,,,,,,,,,,,,,,,,,,,,,,,,,,,,,,,,,,,102,002,2021_Sep_22_1523,joplin1,2021.2.3,60.01150734655219,
_train_cond.csv,1 1 1 0 0 0 0 1 1 1,4,categoryB,j,,,0,5,5,2,1,0,14,10,,,,,,,,,,,,,,,,,,,f,0,0.6170671249274164,,,,,,,,,,,,,,,,,,,,,,,,,,,,,,,,,,,,102,002,2021_Sep_22_1523,joplin1,2021.2.3,60.01150734655219,
_train_cond.csv,0 0 0 1 1 1 1 0 0 0,6,categoryA,f,,,0,5,5,2,1,1,15,3,,,,,,,,,,,,,,,,,,,f,1,1.4146112918388098,,,,,,,,,,,,,,,,,,,,,,,,,,,,,,,,,,,,102,002,2021_Sep_22_1523,joplin1,2021.2.3,60.01150734655219,
_train_cond.csv,0 1 0 0 0 0 0 0 1 0,8,categoryA,f,,,0,5,5,2,1,2,16,1,,,,,,,,,,,,,,,,,,,j,0,0.37242479203268886,,,,,,,,,,,,,,,,,,,,,,,,,,,,,,,,,,,,102,002,2021_Sep_22_1523,joplin1,2021.2.3,60.01150734655219,
_train_cond.csv,0 0 1 0 1 1 0 1 0 0,6,categoryA,f,,,0,5,5,2,1,3,17,2,,,,,,,,,,,,,,,,,,,j,0,0.34894383302889764,,,,,,,,,,,,,,,,,,,,,,,,,,,,,,,,,,,,102,002,2021_Sep_22_1523,joplin1,2021.2.3,60.01150734655219,
_train_cond.csv,0 0 0 1 0 0 1 0 0 0,8,categoryA,f,,,0,5,5,2,1,4,18,4,,,,,,,,,,,,,,,,,,,j,0,0.8542023750487715,,,,,,,,,,,,,,,,,,,,,,,,,,,,,,,,,,,,102,002,2021_Sep_22_1523,joplin1,2021.2.3,60.01150734655219,
_train_cond.csv,0 0 1 0 0 0 0 1 0 0,8,categoryA,f,,,0,5,5,2,1,5,19,5,,,,,,,,,,,,,,,,,,,f,1,1.0907032499089837,,,,,,,,,,,,,,,,,,,,,,,,,,,,,,,,,,,,102,002,2021_Sep_22_1523,joplin1,2021.2.3,60.01150734655219,
_train_cond.csv,1 0 1 1 1 1 1 1 0 1,2,categoryB,j,,,0,5,5,2,1,6,20,8,,,,,,,,,,,,,,,,,,,f,0,0.43702812516130507,,,,,,,,,,,,,,,,,,,,,,,,,,,,,,,,,,,,102,002,2021_Sep_22_1523,joplin1,2021.2.3,60.01150734655219,
_train_cond.csv,0 0 1 1 1 1 1 1 0 0,4,categoryB,j,,,0,5,5,2,1,7,21,13,,,,,,,,,,,,,,,,,,,j,1,0.38689874997362494,,,,,,,,,,,,,,,,,,,,,,,,,,,,,,,,,,,,102,002,2021_Sep_22_1523,joplin1,2021.2.3,60.01150734655219,
_train_cond.csv,1 1 1 0 1 1 0 1 1 1,2,categoryB,j,,,0,5,5,2,1,8,22,11,,,,,,,,,,,,,,,,,,,f,0,0.6410083340015262,,,,,,,,,,,,,,,,,,,,,,,,,,,,,,,,,,,,102,002,2021_Sep_22_1523,joplin1,2021.2.3,60.01150734655219,
_train_cond.csv,1 1 0 1 0 0 1 0 1 1,4,categoryB,j,,,0,5,5,2,1,9,23,9,,,,,,,,,,,,,,,,,,,j,1,0.8291558329947293,,,,,,,,,,,,,,,,,,,,,,,,,,,,,,,,,,,,102,002,2021_Sep_22_1523,joplin1,2021.2.3,60.01150734655219,
_train_cond.csv,1 1 0 0 0 0 0 0 1 1,6,categoryA,f,,,0,5,5,2,1,10,24,6,,,,,,,,,,,,,,,,,,,f,1,0.7454082500189543,,,,,,,,,,,,,,,,,,,,,,,,,,,,,,,,,,,,102,002,2021_Sep_22_1523,joplin1,2021.2.3,60.01150734655219,
_train_cond.csv,1 1 0 1 1 1 1 0 1 1,2,categoryB,j,,,0,5,5,2,1,11,25,12,,,,,,,,,,,,,,,,,,,f,0,0.42730204202234745,,,,,,,,,,,,,,,,,,,,,,,,,,,,,,,,,,,,102,002,2021_Sep_22_1523,joplin1,2021.2.3,60.01150734655219,
_train_cond.csv,0 1 1 1 1 1 1 1 1 0,2,categoryB,j,,,0,5,5,2,1,12,26,7,,,,,,,,,,,,,,,,,,,j,1,0.5520574999973178,,,,,,,,,,,,,,,,,,,,,,,,,,,,,,,,,,,,102,002,2021_Sep_22_1523,joplin1,2021.2.3,60.01150734655219,
_train_cond.csv,1 0 0 0 0 0 0 0 0 1,8,categoryA,f,,,0,5,5,2,1,13,27,0,,,,,,,,,,,,,,,,,,,f,1,0.28894745814614,,,,,,,,,,,,,,,,,,,,,,,,,,,,,,,,,,,,102,002,2021_Sep_22_1523,joplin1,2021.2.3,60.01150734655219,
_train_cond.csv,0 1 0 0 0 0 0 0 1 0,8,categoryA,f,,,0,5,5,2,2,0,28,1,,,,,,,,,,,,,,,,,,,j,0,1.0120830000378191,,,,,,,,,,,,,,,,,,,,,,,,,,,,,,,,,,,,102,002,2021_Sep_22_1523,joplin1,2021.2.3,60.01150734655219,
_train_cond.csv,1 0 1 1 1 1 1 1 0 1,2,categoryB,j,,,0,5,5,2,2,1,29,8,,,,,,,,,,,,,,,,,,,j,1,0.4574285000562668,,,,,,,,,,,,,,,,,,,,,,,,,,,,,,,,,,,,102,002,2021_Sep_22_1523,joplin1,2021.2.3,60.01150734655219,
_train_cond.csv,1 1 1 0 0 0 0 1 1 1,4,categoryB,j,,,0,5,5,2,2,2,30,10,,,,,,,,,,,,,,,,,,,f,0,0.7814898330252618,,,,,,,,,,,,,,,,,,,,,,,,,,,,,,,,,,,,102,002,2021_Sep_22_1523,joplin1,2021.2.3,60.01150734655219,
_train_cond.csv,1 1 0 1 0 0 1 0 1 1,4,categoryB,j,,,0,5,5,2,2,3,31,9,,,,,,,,,,,,,,,,,,,j,1,0.24544704193249345,,,,,,,,,,,,,,,,,,,,,,,,,,,,,,,,,,,,102,002,2021_Sep_22_1523,joplin1,2021.2.3,60.01150734655219,
_train_cond.csv,0 0 1 1 1 1 1 1 0 0,4,categoryB,j,,,0,5,5,2,2,4,32,13,,,,,,,,,,,,,,,,,,,f,0,0.36215879092924297,,,,,,,,,,,,,,,,,,,,,,,,,,,,,,,,,,,,102,002,2021_Sep_22_1523,joplin1,2021.2.3,60.01150734655219,
_train_cond.csv,0 0 0 1 1 1 1 0 0 0,6,categoryA,f,,,0,5,5,2,2,5,33,3,,,,,,,,,,,,,,,,,,,f,1,0.3063177920412272,,,,,,,,,,,,,,,,,,,,,,,,,,,,,,,,,,,,102,002,2021_Sep_22_1523,joplin1,2021.2.3,60.01150734655219,
_train_cond.csv,0 0 1 0 0 0 0 1 0 0,8,categoryA,f,,,0,5,5,2,2,6,34,5,,,,,,,,,,,,,,,,,,,j,0,0.4201100419741124,,,,,,,,,,,,,,,,,,,,,,,,,,,,,,,,,,,,102,002,2021_Sep_22_1523,joplin1,2021.2.3,60.01150734655219,
_train_cond.csv,1 1 0 0 0 0 0 0 1 1,6,categoryA,f,,,0,5,5,2,2,7,35,6,,,,,,,,,,,,,,,,,,,j,0,0.38484679092653096,,,,,,,,,,,,,,,,,,,,,,,,,,,,,,,,,,,,102,002,2021_Sep_22_1523,joplin1,2021.2.3,60.01150734655219,
_train_cond.csv,0 0 1 0 1 1 0 1 0 0,6,categoryA,f,,,0,5,5,2,2,8,36,2,,,,,,,,,,,,,,,,,,,f,1,0.34514945885166526,,,,,,,,,,,,,,,,,,,,,,,,,,,,,,,,,,,,102,002,2021_Sep_22_1523,joplin1,2021.2.3,60.01150734655219,
_train_cond.csv,0 0 0 1 0 0 1 0 0 0,8,categoryA,f,,,0,5,5,2,2,9,37,4,,,,,,,,,,,,,,,,,,,j,0,0.009515166049823165,,,,,,,,,,,,,,,,,,,,,,,,,,,,,,,,,,,,102,002,2021_Sep_22_1523,joplin1,2021.2.3,60.01150734655219,
_train_cond.csv,1 0 0 0 0 0 0 0 0 1,8,categoryA,f,,,0,5,5,2,2,10,38,0,,,,,,,,,,,,,,,,,,,j,0,0.3760567498393357,,,,,,,,,,,,,,,,,,,,,,,,,,,,,,,,,,,,102,002,2021_Sep_22_1523,joplin1,2021.2.3,60.01150734655219,
_train_cond.csv,0 1 1 1 1 1 1 1 1 0,2,categoryB,j,,,0,5,5,2,2,11,39,7,,,,,,,,,,,,,,,,,,,f,0,0.32796720904298127,,,,,,,,,,,,,,,,,,,,,,,,,,,,,,,,,,,,102,002,2021_Sep_22_1523,joplin1,2021.2.3,60.01150734655219,
_train_cond.csv,1 1 0 1 1 1 1 0 1 1,2,categoryB,j,,,0,5,5,2,2,12,40,12,,,,,,,,,,,,,,,,,,,j,1,0.3608345000538975,,,,,,,,,,,,,,,,,,,,,,,,,,,,,,,,,,,,102,002,2021_Sep_22_1523,joplin1,2021.2.3,60.01150734655219,
_train_cond.csv,1 1 1 0 1 1 0 1 1 1,2,categoryB,j,,,0,5,5,2,2,13,41,11,,,,,,,,,,,,,,,,,,,f,0,0.3608775830361992,,,,,,,,,,,,,,,,,,,,,,,,,,,,,,,,,,,,102,002,2021_Sep_22_1523,joplin1,2021.2.3,60.01150734655219,
_train_cond.csv,,,,,,,0,5,5,2,,,,,,,,,,,,,,,,,,,,,,,,,,space,1.3283716251607984,,,,,,,,,,,,,,,,,,,,,,,,,,,,,,,,,,102,002,2021_Sep_22_1523,joplin1,2021.2.3,60.01150734655219,
_train_cond.csv,0 1 1 1 1 1 1 1 1 0,2,categoryB,j,,,0,6,6,7,0,0,0,7,,,,,,,,,,,,,,,,,,,j,1,0.5228829581756145,,,,,,,,,,,,,,,,,,,,,,,,,,,,,,,,,,,,102,002,2021_Sep_22_1523,joplin1,2021.2.3,60.01150734655219,
_train_cond.csv,1 1 0 1 0 0 1 0 1 1,4,categoryB,j,,,0,6,6,7,0,1,1,9,,,,,,,,,,,,,,,,,,,j,1,0.13274475000798702,,,,,,,,,,,,,,,,,,,,,,,,,,,,,,,,,,,,102,002,2021_Sep_22_1523,joplin1,2021.2.3,60.01150734655219,
_train_cond.csv,1 0 1 1 1 1 1 1 0 1,2,categoryB,j,,,0,6,6,7,0,2,2,8,,,,,,,,,,,,,,,,,,,f,0,0.30178379104472697,,,,,,,,,,,,,,,,,,,,,,,,,,,,,,,,,,,,102,002,2021_Sep_22_1523,joplin1,2021.2.3,60.01150734655219,
_train_cond.csv,1 1 1 0 0 0 0 1 1 1,4,categoryB,j,,,0,6,6,7,0,3,3,10,,,,,,,,,,,,,,,,,,,j,1,0.5928485000040382,,,,,,,,,,,,,,,,,,,,,,,,,,,,,,,,,,,,102,002,2021_Sep_22_1523,joplin1,2021.2.3,60.01150734655219,
_train_cond.csv,1 1 0 0 0 0 0 0 1 1,6,categoryA,f,,,0,6,6,7,0,4,4,6,,,,,,,,,,,,,,,,,,,f,1,0.35145270777866244,,,,,,,,,,,,,,,,,,,,,,,,,,,,,,,,,,,,102,002,2021_Sep_22_1523,joplin1,2021.2.3,60.01150734655219,
_train_cond.csv,0 0 1 0 0 0 0 1 0 0,8,categoryA,f,,,0,6,6,7,0,5,5,5,,,,,,,,,,,,,,,,,,,j,0,0.40055129188112915,,,,,,,,,,,,,,,,,,,,,,,,,,,,,,,,,,,,102,002,2021_Sep_22_1523,joplin1,2021.2.3,60.01150734655219,
_train_cond.csv,1 1 1 0 1 1 0 1 1 1,2,categoryB,j,,,0,6,6,7,0,6,6,11,,,,,,,,,,,,,,,,,,,f,0,0.23071733303368092,,,,,,,,,,,,,,,,,,,,,,,,,,,,,,,,,,,,102,002,2021_Sep_22_1523,joplin1,2021.2.3,60.01150734655219,
_train_cond.csv,1 0 0 0 0 0 0 0 0 1,8,categoryA,f,,,0,6,6,7,0,7,7,0,,,,,,,,,,,,,,,,,,,f,1,0.4452561668585986,,,,,,,,,,,,,,,,,,,,,,,,,,,,,,,,,,,,102,002,2021_Sep_22_1523,joplin1,2021.2.3,60.01150734655219,
_train_cond.csv,0 0 0 1 0 0 1 0 0 0,8,categoryA,f,,,0,6,6,7,0,8,8,4,,,,,,,,,,,,,,,,,,,j,0,0.3452541248407215,,,,,,,,,,,,,,,,,,,,,,,,,,,,,,,,,,,,102,002,2021_Sep_22_1523,joplin1,2021.2.3,60.01150734655219,
_train_cond.csv,1 1 0 1 1 1 1 0 1 1,2,categoryB,j,,,0,6,6,7,0,9,9,12,,,,,,,,,,,,,,,,,,,f,0,0.7299575000070035,,,,,,,,,,,,,,,,,,,,,,,,,,,,,,,,,,,,102,002,2021_Sep_22_1523,joplin1,2021.2.3,60.01150734655219,
_train_cond.csv,0 0 1 1 1 1 1 1 0 0,4,categoryB,j,,,0,6,6,7,0,10,10,13,,,,,,,,,,,,,,,,,,,f,0,0.4994997081812471,,,,,,,,,,,,,,,,,,,,,,,,,,,,,,,,,,,,102,002,2021_Sep_22_1523,joplin1,2021.2.3,60.01150734655219,
_train_cond.csv,0 0 1 0 1 1 0 1 0 0,6,categoryA,f,,,0,6,6,7,0,11,11,2,,,,,,,,,,,,,,,,,,,f,1,0.43126600002869964,,,,,,,,,,,,,,,,,,,,,,,,,,,,,,,,,,,,102,002,2021_Sep_22_1523,joplin1,2021.2.3,60.01150734655219,
_train_cond.csv,0 0 0 1 1 1 1 0 0 0,6,categoryA,f,,,0,6,6,7,0,12,12,3,,,,,,,,,,,,,,,,,,,f,1,0.37988595804199576,,,,,,,,,,,,,,,,,,,,,,,,,,,,,,,,,,,,102,002,2021_Sep_22_1523,joplin1,2021.2.3,60.01150734655219,
_train_cond.csv,0 1 0 0 0 0 0 0 1 0,8,categoryA,f,,,0,6,6,7,0,13,13,1,,,,,,,,,,,,,,,,,,,f,1,0.7560245420318097,,,,,,,,,,,,,,,,,,,,,,,,,,,,,,,,,,,,102,002,2021_Sep_22_1523,joplin1,2021.2.3,60.01150734655219,
_train_cond.csv,0 0 1 1 1 1 1 1 0 0,4,categoryB,j,,,0,6,6,7,1,0,14,13,,,,,,,,,,,,,,,,,,,f,0,0.14068074990063906,,,,,,,,,,,,,,,,,,,,,,,,,,,,,,,,,,,,102,002,2021_Sep_22_1523,joplin1,2021.2.3,60.01150734655219,
_train_cond.csv,0 0 1 0 1 1 0 1 0 0,6,categoryA,f,,,0,6,6,7,1,1,15,2,,,,,,,,,,,,,,,,,,,j,0,0.0767141671385616,,,,,,,,,,,,,,,,,,,,,,,,,,,,,,,,,,,,102,002,2021_Sep_22_1523,joplin1,2021.2.3,60.01150734655219,
_train_cond.csv,1 0 0 0 0 0 0 0 0 1,8,categoryA,f,,,0,6,6,7,1,2,16,0,,,,,,,,,,,,,,,,,,,f,1,0.8158244590740651,,,,,,,,,,,,,,,,,,,,,,,,,,,,,,,,,,,,102,002,2021_Sep_22_1523,joplin1,2021.2.3,60.01150734655219,
_train_cond.csv,1 1 0 0 0 0 0 0 1 1,6,categoryA,f,,,0,6,6,7,1,3,17,6,,,,,,,,,,,,,,,,,,,j,0,0.40612058294937015,,,,,,,,,,,,,,,,,,,,,,,,,,,,,,,,,,,,102,002,2021_Sep_22_1523,joplin1,2021.2.3,60.01150734655219,
_train_cond.csv,1 1 1 0 1 1 0 1 1 1,2,categoryB,j,,,0,6,6,7,1,4,18,11,,,,,,,,,,,,,,,,,,,j,1,0.7879025000147521,,,,,,,,,,,,,,,,,,,,,,,,,,,,,,,,,,,,102,002,2021_Sep_22_1523,joplin1,2021.2.3,60.01150734655219,
_train_cond.csv,1 1 0 1 1 1 1 0 1 1,2,categoryB,j,,,0,6,6,7,1,5,19,12,,,,,,,,,,,,,,,,,,,j,1,0.819480957929045,,,,,,,,,,,,,,,,,,,,,,,,,,,,,,,,,,,,102,002,2021_Sep_22_1523,joplin1,2021.2.3,60.01150734655219,
_train_cond.csv,0 1 0 0 0 0 0 0 1 0,8,categoryA,f,,,0,6,6,7,1,6,20,1,,,,,,,,,,,,,,,,,,,f,1,0.464797040913254,,,,,,,,,,,,,,,,,,,,,,,,,,,,,,,,,,,,102,002,2021_Sep_22_1523,joplin1,2021.2.3,60.01150734655219,
_train_cond.csv,0 0 1 0 0 0 0 1 0 0,8,categoryA,f,,,0,6,6,7,1,7,21,5,,,,,,,,,,,,,,,,,,,j,0,0.3648097908589989,,,,,,,,,,,,,,,,,,,,,,,,,,,,,,,,,,,,102,002,2021_Sep_22_1523,joplin1,2021.2.3,60.01150734655219,
_train_cond.csv,1 1 0 1 0 0 1 0 1 1,4,categoryB,j,,,0,6,6,7,1,8,22,9,,,,,,,,,,,,,,,,,,,f,0,0.908622165909037,,,,,,,,,,,,,,,,,,,,,,,,,,,,,,,,,,,,102,002,2021_Sep_22_1523,joplin1,2021.2.3,60.01150734655219,
_train_cond.csv,0 1 1 1 1 1 1 1 1 0,2,categoryB,j,,,0,6,6,7,1,9,23,7,,,,,,,,,,,,,,,,,,,j,1,0.41403658292256296,,,,,,,,,,,,,,,,,,,,,,,,,,,,,,,,,,,,102,002,2021_Sep_22_1523,joplin1,2021.2.3,60.01150734655219,
_train_cond.csv,0 0 0 1 1 1 1 0 0 0,6,categoryA,f,,,0,6,6,7,1,10,24,3,,,,,,,,,,,,,,,,,,,f,1,1.716221750015393,,,,,,,,,,,,,,,,,,,,,,,,,,,,,,,,,,,,102,002,2021_Sep_22_1523,joplin1,2021.2.3,60.01150734655219,
_train_cond.csv,0 0 0 1 0 0 1 0 0 0,8,categoryA,f,,,0,6,6,7,1,11,25,4,,,,,,,,,,,,,,,,,,,f,1,2.1255829171277583,,,,,,,,,,,,,,,,,,,,,,,,,,,,,,,,,,,,102,002,2021_Sep_22_1523,joplin1,2021.2.3,60.01150734655219,
_train_cond.csv,1 1 1 0 0 0 0 1 1 1,4,categoryB,j,,,0,6,6,7,1,12,26,10,,,,,,,,,,,,,,,,,,,f,0,0.6477251669857651,,,,,,,,,,,,,,,,,,,,,,,,,,,,,,,,,,,,102,002,2021_Sep_22_1523,joplin1,2021.2.3,60.01150734655219,
_train_cond.csv,1 0 1 1 1 1 1 1 0 1,2,categoryB,j,,,0,6,6,7,1,13,27,8,,,,,,,,,,,,,,,,,,,f,0,1.4367627080064267,,,,,,,,,,,,,,,,,,,,,,,,,,,,,,,,,,,,102,002,2021_Sep_22_1523,joplin1,2021.2.3,60.01150734655219,
_train_cond.csv,1 0 1 1 1 1 1 1 0 1,2,categoryB,j,,,0,6,6,7,2,0,28,8,,,,,,,,,,,,,,,,,,,f,0,0.7059226660057902,,,,,,,,,,,,,,,,,,,,,,,,,,,,,,,,,,,,102,002,2021_Sep_22_1523,joplin1,2021.2.3,60.01150734655219,
_train_cond.csv,1 1 0 1 0 0 1 0 1 1,4,categoryB,j,,,0,6,6,7,2,1,29,9,,,,,,,,,,,,,,,,,,,j,1,0.6926826250273734,,,,,,,,,,,,,,,,,,,,,,,,,,,,,,,,,,,,102,002,2021_Sep_22_1523,joplin1,2021.2.3,60.01150734655219,
_train_cond.csv,0 0 1 0 1 1 0 1 0 0,6,categoryA,f,,,0,6,6,7,2,2,30,2,,,,,,,,,,,,,,,,,,,f,1,0.03955550002865493,,,,,,,,,,,,,,,,,,,,,,,,,,,,,,,,,,,,102,002,2021_Sep_22_1523,joplin1,2021.2.3,60.01150734655219,
_train_cond.csv,1 1 1 0 0 0 0 1 1 1,4,categoryB,j,,,0,6,6,7,2,3,31,10,,,,,,,,,,,,,,,,,,,j,1,0.5797902080230415,,,,,,,,,,,,,,,,,,,,,,,,,,,,,,,,,,,,102,002,2021_Sep_22_1523,joplin1,2021.2.3,60.01150734655219,
_train_cond.csv,1 1 1 0 1 1 0 1 1 1,2,categoryB,j,,,0,6,6,7,2,4,32,11,,,,,,,,,,,,,,,,,,,f,0,0.3073928339872509,,,,,,,,,,,,,,,,,,,,,,,,,,,,,,,,,,,,102,002,2021_Sep_22_1523,joplin1,2021.2.3,60.01150734655219,
_train_cond.csv,1 1 0 0 0 0 0 0 1 1,6,categoryA,f,,,0,6,6,7,2,5,33,6,,,,,,,,,,,,,,,,,,,j,0,0.27817779197357595,,,,,,,,,,,,,,,,,,,,,,,,,,,,,,,,,,,,102,002,2021_Sep_22_1523,joplin1,2021.2.3,60.01150734655219,
_train_cond.csv,0 0 0 1 0 0 1 0 0 0,8,categoryA,f,,,0,6,6,7,2,6,34,4,,,,,,,,,,,,,,,,,,,j,0,0.9290041250642389,,,,,,,,,,,,,,,,,,,,,,,,,,,,,,,,,,,,102,002,2021_Sep_22_1523,joplin1,2021.2.3,60.01150734655219,
_train_cond.csv,0 1 1 1 1 1 1 1 1 0,2,categoryB,j,,,0,6,6,7,2,7,35,7,,,,,,,,,,,,,,,,,,,f,0,0.682897541904822,,,,,,,,,,,,,,,,,,,,,,,,,,,,,,,,,,,,102,002,2021_Sep_22_1523,joplin1,2021.2.3,60.01150734655219,
_train_cond.csv,0 0 1 1 1 1 1 1 0 0,4,categoryB,j,,,0,6,6,7,2,8,36,13,,,,,,,,,,,,,,,,,,,f,0,0.8614472078625113,,,,,,,,,,,,,,,,,,,,,,,,,,,,,,,,,,,,102,002,2021_Sep_22_1523,joplin1,2021.2.3,60.01150734655219,
_train_cond.csv,0 0 1 0 0 0 0 1 0 0,8,categoryA,f,,,0,6,6,7,2,9,37,5,,,,,,,,,,,,,,,,,,,f,1,0.22538075014017522,,,,,,,,,,,,,,,,,,,,,,,,,,,,,,,,,,,,102,002,2021_Sep_22_1523,joplin1,2021.2.3,60.01150734655219,
_train_cond.csv,1 1 0 1 1 1 1 0 1 1,2,categoryB,j,,,0,6,6,7,2,10,38,12,,,,,,,,,,,,,,,,,,,f,0,0.8867456659208983,,,,,,,,,,,,,,,,,,,,,,,,,,,,,,,,,,,,102,002,2021_Sep_22_1523,joplin1,2021.2.3,60.01150734655219,
_train_cond.csv,1 0 0 0 0 0 0 0 0 1,8,categoryA,f,,,0,6,6,7,2,11,39,0,,,,,,,,,,,,,,,,,,,f,1,1.0095417089760303,,,,,,,,,,,,,,,,,,,,,,,,,,,,,,,,,,,,102,002,2021_Sep_22_1523,joplin1,2021.2.3,60.01150734655219,
_train_cond.csv,0 0 0 1 1 1 1 0 0 0,6,categoryA,f,,,0,6,6,7,2,12,40,3,,,,,,,,,,,,,,,,,,,j,0,0.32718429202213883,,,,,,,,,,,,,,,,,,,,,,,,,,,,,,,,,,,,102,002,2021_Sep_22_1523,joplin1,2021.2.3,60.01150734655219,
_train_cond.csv,0 1 0 0 0 0 0 0 1 0,8,categoryA,f,,,0,6,6,7,2,13,41,1,,,,,,,,,,,,,,,,,,,f,1,0.6880166660994291,,,,,,,,,,,,,,,,,,,,,,,,,,,,,,,,,,,,102,002,2021_Sep_22_1523,joplin1,2021.2.3,60.01150734655219,
_train_cond.csv,,,,,,,0,6,6,7,,,,,,,,,,,,,,,,,,,,,,,,,,space,4.602139666909352,,,,,,,,,,,,,,,,,,,,,,,,,,,,,,,,,,102,002,2021_Sep_22_1523,joplin1,2021.2.3,60.01150734655219,
_train_cond.csv,0 1 0 0 0 0 0 0 1 0,8,categoryA,f,,,0,7,7,4,0,0,0,1,,,,,,,,,,,,,,,,,,,f,1,0.6889909999445081,,,,,,,,,,,,,,,,,,,,,,,,,,,,,,,,,,,,102,002,2021_Sep_22_1523,joplin1,2021.2.3,60.01150734655219,
_train_cond.csv,1 1 0 1 1 1 1 0 1 1,2,categoryB,j,,,0,7,7,4,0,1,1,12,,,,,,,,,,,,,,,,,,,f,0,0.7640035829972476,,,,,,,,,,,,,,,,,,,,,,,,,,,,,,,,,,,,102,002,2021_Sep_22_1523,joplin1,2021.2.3,60.01150734655219,
_train_cond.csv,1 1 1 0 1 1 0 1 1 1,2,categoryB,j,,,0,7,7,4,0,2,2,11,,,,,,,,,,,,,,,,,,,f,0,0.5151590839959681,,,,,,,,,,,,,,,,,,,,,,,,,,,,,,,,,,,,102,002,2021_Sep_22_1523,joplin1,2021.2.3,60.01150734655219,
_train_cond.csv,0 0 0 1 1 1 1 0 0 0,6,categoryA,f,,,0,7,7,4,0,3,3,3,,,,,,,,,,,,,,,,,,,f,1,1.9678240830544382,,,,,,,,,,,,,,,,,,,,,,,,,,,,,,,,,,,,102,002,2021_Sep_22_1523,joplin1,2021.2.3,60.01150734655219,
_train_cond.csv,1 1 0 0 0 0 0 0 1 1,6,categoryA,f,,,0,7,7,4,0,4,4,6,,,,,,,,,,,,,,,,,,,f,1,0.6472982501145452,,,,,,,,,,,,,,,,,,,,,,,,,,,,,,,,,,,,102,002,2021_Sep_22_1523,joplin1,2021.2.3,60.01150734655219,
_train_cond.csv,0 0 1 0 1 1 0 1 0 0,6,categoryA,f,,,0,7,7,4,0,5,5,2,,,,,,,,,,,,,,,,,,,j,0,0.7721375420223922,,,,,,,,,,,,,,,,,,,,,,,,,,,,,,,,,,,,102,002,2021_Sep_22_1523,joplin1,2021.2.3,60.01150734655219,
_train_cond.csv,1 0 0 0 0 0 0 0 0 1,8,categoryA,f,,,0,7,7,4,0,6,6,0,,,,,,,,,,,,,,,,,,,j,0,0.61216845898889,,,,,,,,,,,,,,,,,,,,,,,,,,,,,,,,,,,,102,002,2021_Sep_22_1523,joplin1,2021.2.3,60.01150734655219,
_train_cond.csv,0 1 1 1 1 1 1 1 1 0,2,categoryB,j,,,0,7,7,4,0,7,7,7,,,,,,,,,,,,,,,,,,,f,0,0.6086882499512285,,,,,,,,,,,,,,,,,,,,,,,,,,,,,,,,,,,,102,002,2021_Sep_22_1523,joplin1,2021.2.3,60.01150734655219,
_train_cond.csv,0 0 1 0 0 0 0 1 0 0,8,categoryA,f,,,0,7,7,4,0,8,8,5,,,,,,,,,,,,,,,,,,,j,0,0.8643561250064522,,,,,,,,,,,,,,,,,,,,,,,,,,,,,,,,,,,,102,002,2021_Sep_22_1523,joplin1,2021.2.3,60.01150734655219,
_train_cond.csv,0 0 1 1 1 1 1 1 0 0,4,categoryB,j,,,0,7,7,4,0,9,9,13,,,,,,,,,,,,,,,,,,,f,0,0.052803541999310255,,,,,,,,,,,,,,,,,,,,,,,,,,,,,,,,,,,,102,002,2021_Sep_22_1523,joplin1,2021.2.3,60.01150734655219,
_train_cond.csv,1 1 0 1 0 0 1 0 1 1,4,categoryB,j,,,0,7,7,4,0,10,10,9,,,,,,,,,,,,,,,,,,,f,0,0.05624691699631512,,,,,,,,,,,,,,,,,,,,,,,,,,,,,,,,,,,,102,002,2021_Sep_22_1523,joplin1,2021.2.3,60.01150734655219,
_train_cond.csv,1 0 1 1 1 1 1 1 0 1,2,categoryB,j,,,0,7,7,4,0,11,11,8,,,,,,,,,,,,,,,,,,,f,0,0.7175163750071079,,,,,,,,,,,,,,,,,,,,,,,,,,,,,,,,,,,,102,002,2021_Sep_22_1523,joplin1,2021.2.3,60.01150734655219,
_train_cond.csv,1 1 1 0 0 0 0 1 1 1,4,categoryB,j,,,0,7,7,4,0,12,12,10,,,,,,,,,,,,,,,,,,,f,0,0.3829839590471238,,,,,,,,,,,,,,,,,,,,,,,,,,,,,,,,,,,,102,002,2021_Sep_22_1523,joplin1,2021.2.3,60.01150734655219,
_train_cond.csv,0 0 0 1 0 0 1 0 0 0,8,categoryA,f,,,0,7,7,4,0,13,13,4,,,,,,,,,,,,,,,,,,,j,0,0.5446893328335136,,,,,,,,,,,,,,,,,,,,,,,,,,,,,,,,,,,,102,002,2021_Sep_22_1523,joplin1,2021.2.3,60.01150734655219,
_train_cond.csv,0 0 1 1 1 1 1 1 0 0,4,categoryB,j,,,0,7,7,4,1,0,14,13,,,,,,,,,,,,,,,,,,,j,1,0.728509500157088,,,,,,,,,,,,,,,,,,,,,,,,,,,,,,,,,,,,102,002,2021_Sep_22_1523,joplin1,2021.2.3,60.01150734655219,
_train_cond.csv,0 1 1 1 1 1 1 1 1 0,2,categoryB,j,,,0,7,7,4,1,1,15,7,,,,,,,,,,,,,,,,,,,j,1,0.9610869160387665,,,,,,,,,,,,,,,,,,,,,,,,,,,,,,,,,,,,102,002,2021_Sep_22_1523,joplin1,2021.2.3,60.01150734655219,
_train_cond.csv,1 1 1 0 1 1 0 1 1 1,2,categoryB,j,,,0,7,7,4,1,2,16,11,,,,,,,,,,,,,,,,,,,f,0,0.36938112508505583,,,,,,,,,,,,,,,,,,,,,,,,,,,,,,,,,,,,102,002,2021_Sep_22_1523,joplin1,2021.2.3,60.01150734655219,
_train_cond.csv,1 0 0 0 0 0 0 0 0 1,8,categoryA,f,,,0,7,7,4,1,3,17,0,,,,,,,,,,,,,,,,,,,f,1,0.42556304205209017,,,,,,,,,,,,,,,,,,,,,,,,,,,,,,,,,,,,102,002,2021_Sep_22_1523,joplin1,2021.2.3,60.01150734655219,
_train_cond.csv,0 0 1 0 1 1 0 1 0 0,6,categoryA,f,,,0,7,7,4,1,4,18,2,,,,,,,,,,,,,,,,,,,j,0,0.3030176251195371,,,,,,,,,,,,,,,,,,,,,,,,,,,,,,,,,,,,102,002,2021_Sep_22_1523,joplin1,2021.2.3,60.01150734655219,
_train_cond.csv,0 1 0 0 0 0 0 0 1 0,8,categoryA,f,,,0,7,7,4,1,5,19,1,,,,,,,,,,,,,,,,,,,j,0,0.6250170830171555,,,,,,,,,,,,,,,,,,,,,,,,,,,,,,,,,,,,102,002,2021_Sep_22_1523,joplin1,2021.2.3,60.01150734655219,
_train_cond.csv,1 1 1 0 0 0 0 1 1 1,4,categoryB,j,,,0,7,7,4,1,6,20,10,,,,,,,,,,,,,,,,,,,f,0,1.015501792076975,,,,,,,,,,,,,,,,,,,,,,,,,,,,,,,,,,,,102,002,2021_Sep_22_1523,joplin1,2021.2.3,60.01150734655219,
_train_cond.csv,1 1 0 1 0 0 1 0 1 1,4,categoryB,j,,,0,7,7,4,1,7,21,9,,,,,,,,,,,,,,,,,,,f,0,0.46971116587519646,,,,,,,,,,,,,,,,,,,,,,,,,,,,,,,,,,,,102,002,2021_Sep_22_1523,joplin1,2021.2.3,60.01150734655219,
_train_cond.csv,1 1 0 1 1 1 1 0 1 1,2,categoryB,j,,,0,7,7,4,1,8,22,12,,,,,,,,,,,,,,,,,,,j,1,0.21757087507285178,,,,,,,,,,,,,,,,,,,,,,,,,,,,,,,,,,,,102,002,2021_Sep_22_1523,joplin1,2021.2.3,60.01150734655219,
_train_cond.csv,0 0 0 1 1 1 1 0 0 0,6,categoryA,f,,,0,7,7,4,1,9,23,3,,,,,,,,,,,,,,,,,,,j,0,0.5113553751725703,,,,,,,,,,,,,,,,,,,,,,,,,,,,,,,,,,,,102,002,2021_Sep_22_1523,joplin1,2021.2.3,60.01150734655219,
_train_cond.csv,1 1 0 0 0 0 0 0 1 1,6,categoryA,f,,,0,7,7,4,1,10,24,6,,,,,,,,,,,,,,,,,,,j,0,0.7134446247946471,,,,,,,,,,,,,,,,,,,,,,,,,,,,,,,,,,,,102,002,2021_Sep_22_1523,joplin1,2021.2.3,60.01150734655219,
_train_cond.csv,0 0 0 1 0 0 1 0 0 0,8,categoryA,f,,,0,7,7,4,1,11,25,4,,,,,,,,,,,,,,,,,,,f,1,0.5165679159108549,,,,,,,,,,,,,,,,,,,,,,,,,,,,,,,,,,,,102,002,2021_Sep_22_1523,joplin1,2021.2.3,60.01150734655219,
_train_cond.csv,0 0 1 0 0 0 0 1 0 0,8,categoryA,f,,,0,7,7,4,1,12,26,5,,,,,,,,,,,,,,,,,,,f,1,0.9185049168299884,,,,,,,,,,,,,,,,,,,,,,,,,,,,,,,,,,,,102,002,2021_Sep_22_1523,joplin1,2021.2.3,60.01150734655219,
_train_cond.csv,1 0 1 1 1 1 1 1 0 1,2,categoryB,j,,,0,7,7,4,1,13,27,8,,,,,,,,,,,,,,,,,,,f,0,0.03211458306759596,,,,,,,,,,,,,,,,,,,,,,,,,,,,,,,,,,,,102,002,2021_Sep_22_1523,joplin1,2021.2.3,60.01150734655219,
_train_cond.csv,1 1 0 0 0 0 0 0 1 1,6,categoryA,f,,,0,7,7,4,2,0,28,6,,,,,,,,,,,,,,,,,,,f,1,0.7095199578907341,,,,,,,,,,,,,,,,,,,,,,,,,,,,,,,,,,,,102,002,2021_Sep_22_1523,joplin1,2021.2.3,60.01150734655219,
_train_cond.csv,1 1 1 0 0 0 0 1 1 1,4,categoryB,j,,,0,7,7,4,2,1,29,10,,,,,,,,,,,,,,,,,,,f,0,0.44715191586874425,,,,,,,,,,,,,,,,,,,,,,,,,,,,,,,,,,,,102,002,2021_Sep_22_1523,joplin1,2021.2.3,60.01150734655219,
_train_cond.csv,1 1 1 0 1 1 0 1 1 1,2,categoryB,j,,,0,7,7,4,2,2,30,11,,,,,,,,,,,,,,,,,,,j,1,0.47636362514458597,,,,,,,,,,,,,,,,,,,,,,,,,,,,,,,,,,,,102,002,2021_Sep_22_1523,joplin1,2021.2.3,60.01150734655219,
_train_cond.csv,1 0 0 0 0 0 0 0 0 1,8,categoryA,f,,,0,7,7,4,2,3,31,0,,,,,,,,,,,,,,,,,,,j,0,0.703193083172664,,,,,,,,,,,,,,,,,,,,,,,,,,,,,,,,,,,,102,002,2021_Sep_22_1523,joplin1,2021.2.3,60.01150734655219,
_train_cond.csv,0 1 1 1 1 1 1 1 1 0,2,categoryB,j,,,0,7,7,4,2,4,32,7,,,,,,,,,,,,,,,,,,,j,1,0.3707061249297112,,,,,,,,,,,,,,,,,,,,,,,,,,,,,,,,,,,,102,002,2021_Sep_22_1523,joplin1,2021.2.3,60.01150734655219,
_train_cond.csv,1 0 1 1 1 1 1 1 0 1,2,categoryB,j,,,0,7,7,4,2,5,33,8,,,,,,,,,,,,,,,,,,,j,1,0.536775958025828,,,,,,,,,,,,,,,,,,,,,,,,,,,,,,,,,,,,102,002,2021_Sep_22_1523,joplin1,2021.2.3,60.01150734655219,
_train_cond.csv,0 0 1 0 1 1 0 1 0 0,6,categoryA,f,,,0,7,7,4,2,6,34,2,,,,,,,,,,,,,,,,,,,j,0,0.5542073750402778,,,,,,,,,,,,,,,,,,,,,,,,,,,,,,,,,,,,102,002,2021_Sep_22_1523,joplin1,2021.2.3,60.01150734655219,
_train_cond.csv,0 0 1 0 0 0 0 1 0 0,8,categoryA,f,,,0,7,7,4,2,7,35,5,,,,,,,,,,,,,,,,,,,f,1,0.43595979106612504,,,,,,,,,,,,,,,,,,,,,,,,,,,,,,,,,,,,102,002,2021_Sep_22_1523,joplin1,2021.2.3,60.01150734655219,
_train_cond.csv,0 0 0 1 0 0 1 0 0 0,8,categoryA,f,,,0,7,7,4,2,8,36,4,,,,,,,,,,,,,,,,,,,j,0,0.36037812498398125,,,,,,,,,,,,,,,,,,,,,,,,,,,,,,,,,,,,102,002,2021_Sep_22_1523,joplin1,2021.2.3,60.01150734655219,
_train_cond.csv,1 1 0 1 1 1 1 0 1 1,2,categoryB,j,,,0,7,7,4,2,9,37,12,,,,,,,,,,,,,,,,,,,f,0,0.4402947500348091,,,,,,,,,,,,,,,,,,,,,,,,,,,,,,,,,,,,102,002,2021_Sep_22_1523,joplin1,2021.2.3,60.01150734655219,
_train_cond.csv,1 1 0 1 0 0 1 0 1 1,4,categoryB,j,,,0,7,7,4,2,10,38,9,,,,,,,,,,,,,,,,,,,f,0,0.4453265001066029,,,,,,,,,,,,,,,,,,,,,,,,,,,,,,,,,,,,102,002,2021_Sep_22_1523,joplin1,2021.2.3,60.01150734655219,
_train_cond.csv,0 0 0 1 1 1 1 0 0 0,6,categoryA,f,,,0,7,7,4,2,11,39,3,,,,,,,,,,,,,,,,,,,j,0,0.7388187909964472,,,,,,,,,,,,,,,,,,,,,,,,,,,,,,,,,,,,102,002,2021_Sep_22_1523,joplin1,2021.2.3,60.01150734655219,
_train_cond.csv,0 1 0 0 0 0 0 0 1 0,8,categoryA,f,,,0,7,7,4,2,12,40,1,,,,,,,,,,,,,,,,,,,j,0,0.8274868340231478,,,,,,,,,,,,,,,,,,,,,,,,,,,,,,,,,,,,102,002,2021_Sep_22_1523,joplin1,2021.2.3,60.01150734655219,
_train_cond.csv,0 0 1 1 1 1 1 1 0 0,4,categoryB,j,,,0,7,7,4,2,13,41,13,,,,,,,,,,,,,,,,,,,j,1,0.7778376659844071,,,,,,,,,,,,,,,,,,,,,,,,,,,,,,,,,,,,102,002,2021_Sep_22_1523,joplin1,2021.2.3,60.01150734655219,
_train_cond.csv,,,,,,,0,7,7,4,,,,,,,,,,,,,,,,,,,,,,,,,,space,2.3445137499365956,,,,,,,,,,,,,,,,,,,,,,,,,,,,,,,,,,102,002,2021_Sep_22_1523,joplin1,2021.2.3,60.01150734655219,
,,,,,,,,,,,,,,,,,,,,,,,,,,,,,,,,,,,,,,q,24.097895208979025,,,,,,,,,,,,,,,,,,,,,,,,,,,,,,,,102,002,2021_Sep_22_1523,joplin1,2021.2.3,60.01150734655219,
,,,,,,,,,,,,,,,,,,,,,,,,,,,,,,,,,,,,,,,,j,3.71036716690287,,,,,,,,,,,,,,,,,,,,,,,,,,,,,,102,002,2021_Sep_22_1523,joplin1,2021.2.3,60.01150734655219,
,,,,,,,,,,,,,,,,,,,,,,,,,,,,,,,,,,,,,,,,,,space,3.296261959010735,,,,,,,,,,,,,,,,,,,,,,,,,,,,102,002,2021_Sep_22_1523,joplin1,2021.2.3,60.01150734655219,
,,,,,,,,,,,,,,,,,,,,,,,,,,,,,,,,,,,,,,,,,,,,space,0.65190020785667,,,,,,,,,,,,,,,,,,,,,,,,,,102,002,2021_Sep_22_1523,joplin1,2021.2.3,60.01150734655219,
,1 1 1 0 0 1 1 1 1 1,2,categoryB,j,genfile2.csv,0,,,,,,,,,0,0,0,1,0,0,0,49,,,,,,,,,,,,,,,,,,,,,,,,f,0,1.1961480418685824,,,,,,,,,,,,,,,,,,,,,,,102,002,2021_Sep_22_1523,joplin1,2021.2.3,60.01150734655219,
,0 0 0 1 0 0 1 0 0 0,8,categoryA,f,genfile2.csv,1,,,,,,,,,0,0,0,1,0,1,1,6,,,,,,,,,,,,,,,,,,,,,,,,j,0,0.3640388329513371,,,,,,,,,,,,,,,,,,,,,,,102,002,2021_Sep_22_1523,joplin1,2021.2.3,60.01150734655219,
,1 1 1 0 1 1 1 1 1 0,2,categoryB,j,genfile2.csv,0,,,,,,,,,0,0,0,1,0,2,2,48,,,,,,,,,,,,,,,,,,,,,,,,j,1,0.9160329170990735,,,,,,,,,,,,,,,,,,,,,,,102,002,2021_Sep_22_1523,joplin1,2021.2.3,60.01150734655219,
,0 1 0 0 0 0 0 0 1 0,8,categoryA,f,genfile2.csv,1,,,,,,,,,0,0,0,1,0,3,3,3,,,,,,,,,,,,,,,,,,,,,,,,j,0,0.6779229589737952,,,,,,,,,,,,,,,,,,,,,,,102,002,2021_Sep_22_1523,joplin1,2021.2.3,60.01150734655219,
,1 0 1 1 1 1 1 1 0 0,3,categoryB,j,genfile2.csv,0,,,,,,,,,0,0,0,1,0,4,4,42,,,,,,,,,,,,,,,,,,,,,,,,j,1,0.7457205830141902,,,,,,,,,,,,,,,,,,,,,,,102,002,2021_Sep_22_1523,joplin1,2021.2.3,60.01150734655219,
,0 0 0 0 0 1 1 1 0 1,6,categoryA,f,genfile2.csv,0,,,,,,,,,0,0,0,1,0,5,5,31,,,,,,,,,,,,,,,,,,,,,,,,j,0,0.4266537909861654,,,,,,,,,,,,,,,,,,,,,,,102,002,2021_Sep_22_1523,joplin1,2021.2.3,60.01150734655219,
,1 1 1 0 0 1 1 1 0 1,3,categoryB,j,genfile2.csv,0,,,,,,,,,0,0,0,1,0,6,6,44,,,,,,,,,,,,,,,,,,,,,,,,j,1,0.37809991580434144,,,,,,,,,,,,,,,,,,,,,,,102,002,2021_Sep_22_1523,joplin1,2021.2.3,60.01150734655219,
,0 0 1 0 1 1 0 0 1 0,6,categoryA,f,genfile2.csv,0,,,,,,,,,0,0,0,1,0,7,7,32,,,,,,,,,,,,,,,,,,,,,,,,f,1,0.19159083417616785,,,,,,,,,,,,,,,,,,,,,,,102,002,2021_Sep_22_1523,joplin1,2021.2.3,60.01150734655219,
,0 0 0 0 0 0 1 1 1 0,7,categoryA,f,genfile2.csv,0,,,,,,,,,0,0,0,1,0,8,8,27,,,,,,,,,,,,,,,,,,,,,,,,f,1,0.33392954198643565,,,,,,,,,,,,,,,,,,,,,,,102,002,2021_Sep_22_1523,joplin1,2021.2.3,60.01150734655219,
,1 0 1 1 1 0 0 1 1 0,4,categoryB,j,genfile2.csv,0,,,,,,,,,0,0,0,1,0,9,9,38,,,,,,,,,,,,,,,,,,,,,,,,f,0,0.3987127090804279,,,,,,,,,,,,,,,,,,,,,,,102,002,2021_Sep_22_1523,joplin1,2021.2.3,60.01150734655219,
,1 1 1 1 1 1 1 1 1 0,1,categoryB,j,genfile2.csv,0,,,,,,,,,0,0,0,1,0,10,10,53,,,,,,,,,,,,,,,,,,,,,,,,j,1,0.30194029211997986,,,,,,,,,,,,,,,,,,,,,,,102,002,2021_Sep_22_1523,joplin1,2021.2.3,60.01150734655219,
,1 0 1 1 0 0 1 0 0 0,6,categoryA,f,genfile2.csv,0,,,,,,,,,0,0,0,1,0,11,11,35,,,,,,,,,,,,,,,,,,,,,,,,f,1,0.2715471249539405,,,,,,,,,,,,,,,,,,,,,,,102,002,2021_Sep_22_1523,joplin1,2021.2.3,60.01150734655219,
,1 1 1 1 1 1 1 1 1 1,0,categoryB,j,genfile2.csv,0,,,,,,,,,0,0,0,1,0,12,12,1,,,,,,,,,,,,,,,,,,,,,,,,j,1,0.4750399168115109,,,,,,,,,,,,,,,,,,,,,,,102,002,2021_Sep_22_1523,joplin1,2021.2.3,60.01150734655219,
,0 0 0 0 0 0 0 0 0 0,10,categoryA,f,genfile2.csv,0,,,,,,,,,0,0,0,1,0,13,13,0,,,,,,,,,,,,,,,,,,,,,,,,f,1,0.2626350831706077,,,,,,,,,,,,,,,,,,,,,,,102,002,2021_Sep_22_1523,joplin1,2021.2.3,60.01150734655219,
,0 1 1 1 1 1 0 1 1 1,2,categoryB,j,genfile2.csv,0,,,,,,,,,0,0,0,1,0,14,14,50,,,,,,,,,,,,,,,,,,,,,,,,j,1,0.3306157498154789,,,,,,,,,,,,,,,,,,,,,,,102,002,2021_Sep_22_1523,joplin1,2021.2.3,60.01150734655219,
,1 0 0 1 1 1 1 0 1 1,3,categoryB,j,genfile2.csv,0,,,,,,,,,0,0,0,1,0,15,15,41,,,,,,,,,,,,,,,,,,,,,,,,f,0,0.30816279212012887,,,,,,,,,,,,,,,,,,,,,,,102,002,2021_Sep_22_1523,joplin1,2021.2.3,60.01150734655219,
,1 1 1 1 1 0 0 1 1 1,2,categoryB,j,genfile2.csv,0,,,,,,,,,0,0,0,1,0,16,16,47,,,,,,,,,,,,,,,,,,,,,,,,f,0,0.5818895830307156,,,,,,,,,,,,,,,,,,,,,,,102,002,2021_Sep_22_1523,joplin1,2021.2.3,60.01150734655219,
,0 0 1 0 1 0 1 0 0 0,7,categoryA,f,genfile2.csv,0,,,,,,,,,0,0,0,1,0,17,17,28,,,,,,,,,,,,,,,,,,,,,,,,f,1,0.3649525421205908,,,,,,,,,,,,,,,,,,,,,,,102,002,2021_Sep_22_1523,joplin1,2021.2.3,60.01150734655219,
,0 0 0 1 0 0 0 0 0 0,9,categoryA,f,genfile2.csv,0,,,,,,,,,0,0,0,1,0,18,18,16,,,,,,,,,,,,,,,,,,,,,,,,f,1,0.38943295809440315,,,,,,,,,,,,,,,,,,,,,,,102,002,2021_Sep_22_1523,joplin1,2021.2.3,60.01150734655219,
,0 1 0 0 0 0 0 0 0 0,9,categoryA,f,genfile2.csv,0,,,,,,,,,0,0,0,1,0,19,19,20,,,,,,,,,,,,,,,,,,,,,,,,f,1,0.2998659168370068,,,,,,,,,,,,,,,,,,,,,,,102,002,2021_Sep_22_1523,joplin1,2021.2.3,60.01150734655219,
,1 0 0 1 0 0 0 0 0 0,8,categoryA,f,genfile2.csv,0,,,,,,,,,0,0,0,1,0,20,20,22,,,,,,,,,,,,,,,,,,,,,,,,j,0,0.2872674579266459,,,,,,,,,,,,,,,,,,,,,,,102,002,2021_Sep_22_1523,joplin1,2021.2.3,60.01150734655219,
,1 0 1 0 1 1 1 1 1 1,2,categoryB,j,genfile2.csv,0,,,,,,,,,0,0,0,1,0,21,21,46,,,,,,,,,,,,,,,,,,,,,,,,j,1,0.12936291587539017,,,,,,,,,,,,,,,,,,,,,,,102,002,2021_Sep_22_1523,joplin1,2021.2.3,60.01150734655219,
,0 0 0 1 1 1 1 0 0 0,6,categoryA,f,genfile2.csv,1,,,,,,,,,0,0,0,1,0,22,22,5,,,,,,,,,,,,,,,,,,,,,,,,j,0,0.2687753748614341,,,,,,,,,,,,,,,,,,,,,,,102,002,2021_Sep_22_1523,joplin1,2021.2.3,60.01150734655219,
,1 1 0 1 0 0 0 0 0 1,6,categoryA,f,genfile2.csv,0,,,,,,,,,0,0,0,1,0,23,23,33,,,,,,,,,,,,,,,,,,,,,,,,f,1,0.2074441669974476,,,,,,,,,,,,,,,,,,,,,,,102,002,2021_Sep_22_1523,joplin1,2021.2.3,60.01150734655219,
,0 0 1 0 1 1 0 1 0 0,6,categoryA,f,genfile2.csv,1,,,,,,,,,0,0,0,1,0,24,24,4,,,,,,,,,,,,,,,,,,,,,,,,f,1,0.27658091695047915,,,,,,,,,,,,,,,,,,,,,,,102,002,2021_Sep_22_1523,joplin1,2021.2.3,60.01150734655219,
,1 1 1 0 1 1 0 1 1 1,2,categoryB,j,genfile2.csv,1,,,,,,,,,0,0,0,1,0,25,25,13,,,,,,,,,,,,,,,,,,,,,,,,j,1,0.30524958297610283,,,,,,,,,,,,,,,,,,,,,,,102,002,2021_Sep_22_1523,joplin1,2021.2.3,60.01150734655219,
,1 0 0 0 0 0 0 0 0 1,8,categoryA,f,genfile2.csv,1,,,,,,,,,0,0,0,1,0,26,26,2,,,,,,,,,,,,,,,,,,,,,,,,f,1,0.3965964999515563,,,,,,,,,,,,,,,,,,,,,,,102,002,2021_Sep_22_1523,joplin1,2021.2.3,60.01150734655219,
,0 0 1 0 0 0 0 0 0 0,9,categoryA,f,genfile2.csv,0,,,,,,,,,0,0,0,1,0,27,27,17,,,,,,,,,,,,,,,,,,,,,,,,f,1,0.5792925411369652,,,,,,,,,,,,,,,,,,,,,,,102,002,2021_Sep_22_1523,joplin1,2021.2.3,60.01150734655219,
,1 0 1 0 1 1 1 1 1 0,3,categoryB,j,genfile2.csv,0,,,,,,,,,0,0,0,1,0,28,28,43,,,,,,,,,,,,,,,,,,,,,,,,j,1,0.3474648748524487,,,,,,,,,,,,,,,,,,,,,,,102,002,2021_Sep_22_1523,joplin1,2021.2.3,60.01150734655219,
,1 0 1 1 1 1 1 1 0 1,2,categoryB,j,genfile2.csv,1,,,,,,,,,0,0,0,1,0,29,29,10,,,,,,,,,,,,,,,,,,,,,,,,j,1,0.3410811251960695,,,,,,,,,,,,,,,,,,,,,,,102,002,2021_Sep_22_1523,joplin1,2021.2.3,60.01150734655219,
,0 1 1 1 0 0 1 1 1 1,3,categoryB,j,genfile2.csv,0,,,,,,,,,0,0,0,1,0,30,30,45,,,,,,,,,,,,,,,,,,,,,,,,j,1,0.5570345409214497,,,,,,,,,,,,,,,,,,,,,,,102,002,2021_Sep_22_1523,joplin1,2021.2.3,60.01150734655219,
,1 1 1 0 1 1 1 1 1 1,1,categoryB,j,genfile2.csv,0,,,,,,,,,0,0,0,1,0,31,31,54,,,,,,,,,,,,,,,,,,,,,,,,f,0,0.2943375420290977,,,,,,,,,,,,,,,,,,,,,,,102,002,2021_Sep_22_1523,joplin1,2021.2.3,60.01150734655219,
,0 0 1 0 0 1 0 0 1 0,7,categoryA,f,genfile2.csv,0,,,,,,,,,0,0,0,1,0,32,32,29,,,,,,,,,,,,,,,,,,,,,,,,j,0,0.6638767078984529,,,,,,,,,,,,,,,,,,,,,,,102,002,2021_Sep_22_1523,joplin1,2021.2.3,60.01150734655219,
,1 1 1 0 0 0 0 1 1 1,4,categoryB,j,genfile2.csv,1,,,,,,,,,0,0,0,1,0,33,33,12,,,,,,,,,,,,,,,,,,,,,,,,j,1,0.4847874999977648,,,,,,,,,,,,,,,,,,,,,,,102,002,2021_Sep_22_1523,joplin1,2021.2.3,60.01150734655219,
,1 1 1 1 1 1 0 1 1 1,1,categoryB,j,genfile2.csv,0,,,,,,,,,0,0,0,1,0,34,34,52,,,,,,,,,,,,,,,,,,,,,,,,j,1,0.43976108310744166,,,,,,,,,,,,,,,,,,,,,,,102,002,2021_Sep_22_1523,joplin1,2021.2.3,60.01150734655219,
,0 0 0 0 0 1 0 0 1 0,8,categoryA,f,genfile2.csv,0,,,,,,,,,0,0,0,1,0,35,35,25,,,,,,,,,,,,,,,,,,,,,,,,f,1,0.8849329589866102,,,,,,,,,,,,,,,,,,,,,,,102,002,2021_Sep_22_1523,joplin1,2021.2.3,60.01150734655219,
,1 1 1 1 1 0 1 1 1 1,1,categoryB,j,genfile2.csv,0,,,,,,,,,0,0,0,1,0,36,36,55,,,,,,,,,,,,,,,,,,,,,,,,j,1,0.42453808384016156,,,,,,,,,,,,,,,,,,,,,,,102,002,2021_Sep_22_1523,joplin1,2021.2.3,60.01150734655219,
,0 0 0 1 1 0 1 0 0 0,7,categoryA,f,genfile2.csv,0,,,,,,,,,0,0,0,1,0,37,37,30,,,,,,,,,,,,,,,,,,,,,,,,j,0,0.5010797909926623,,,,,,,,,,,,,,,,,,,,,,,102,002,2021_Sep_22_1523,joplin1,2021.2.3,60.01150734655219,
,0 0 0 0 0 0 1 0 0 1,8,categoryA,f,genfile2.csv,0,,,,,,,,,0,0,0,1,0,38,38,21,,,,,,,,,,,,,,,,,,,,,,,,j,0,0.39046508399769664,,,,,,,,,,,,,,,,,,,,,,,102,002,2021_Sep_22_1523,joplin1,2021.2.3,60.01150734655219,
,1 1 0 0 0 0 0 0 1 1,6,categoryA,f,genfile2.csv,1,,,,,,,,,0,0,0,1,0,39,39,8,,,,,,,,,,,,,,,,,,,,,,,,f,1,0.20599862490780652,,,,,,,,,,,,,,,,,,,,,,,102,002,2021_Sep_22_1523,joplin1,2021.2.3,60.01150734655219,
,0 0 0 0 0 1 0 0 0 0,9,categoryA,f,genfile2.csv,0,,,,,,,,,0,0,0,1,0,40,40,18,,,,,,,,,,,,,,,,,,,,,,,,j,0,1.0533259171061218,,,,,,,,,,,,,,,,,,,,,,,102,002,2021_Sep_22_1523,joplin1,2021.2.3,60.01150734655219,
,0 0 1 1 1 1 1 1 0 0,4,categoryB,j,genfile2.csv,1,,,,,,,,,0,0,0,1,0,41,41,15,,,,,,,,,,,,,,,,,,,,,,,,f,0,0.36072208313271403,,,,,,,,,,,,,,,,,,,,,,,102,002,2021_Sep_22_1523,joplin1,2021.2.3,60.01150734655219,
,0 1 1 0 1 0 1 1 0 1,4,categoryB,j,genfile2.csv,0,,,,,,,,,0,0,0,1,0,42,42,40,,,,,,,,,,,,,,,,,,,,,,,,f,0,0.41719712503254414,,,,,,,,,,,,,,,,,,,,,,,102,002,2021_Sep_22_1523,joplin1,2021.2.3,60.01150734655219,
,1 0 0 0 1 0 0 0 0 0,8,categoryA,f,genfile2.csv,0,,,,,,,,,0,0,0,1,0,43,43,23,,,,,,,,,,,,,,,,,,,,,,,,f,1,0.7102697500959039,,,,,,,,,,,,,,,,,,,,,,,102,002,2021_Sep_22_1523,joplin1,2021.2.3,60.01150734655219,
,1 1 0 1 0 0 1 0 1 1,4,categoryB,j,genfile2.csv,1,,,,,,,,,0,0,0,1,0,44,44,11,,,,,,,,,,,,,,,,,,,,,,,,f,0,0.8413276250939816,,,,,,,,,,,,,,,,,,,,,,,102,002,2021_Sep_22_1523,joplin1,2021.2.3,60.01150734655219,
,0 1 1 1 1 1 1 1 1 0,2,categoryB,j,genfile2.csv,1,,,,,,,,,0,0,0,1,0,45,45,9,,,,,,,,,,,,,,,,,,,,,,,,f,0,0.6069805000443012,,,,,,,,,,,,,,,,,,,,,,,102,002,2021_Sep_22_1523,joplin1,2021.2.3,60.01150734655219,
,0 0 0 0 0 0 0 1 1 0,8,categoryA,f,genfile2.csv,0,,,,,,,,,0,0,0,1,0,46,46,24,,,,,,,,,,,,,,,,,,,,,,,,j,0,0.4358533751219511,,,,,,,,,,,,,,,,,,,,,,,102,002,2021_Sep_22_1523,joplin1,2021.2.3,60.01150734655219,
,0 0 0 0 0 0 0 0 1 0,9,categoryA,f,genfile2.csv,0,,,,,,,,,0,0,0,1,0,47,47,19,,,,,,,,,,,,,,,,,,,,,,,,f,1,1.1353329999838024,,,,,,,,,,,,,,,,,,,,,,,102,002,2021_Sep_22_1523,joplin1,2021.2.3,60.01150734655219,
,1 1 0 1 1 1 1 0 1 1,2,categoryB,j,genfile2.csv,1,,,,,,,,,0,0,0,1,0,48,48,14,,,,,,,,,,,,,,,,,,,,,,,,f,0,0.8087658330332488,,,,,,,,,,,,,,,,,,,,,,,102,002,2021_Sep_22_1523,joplin1,2021.2.3,60.01150734655219,
,0 1 0 1 0 0 1 0 0 0,7,categoryA,f,genfile2.csv,0,,,,,,,,,0,0,0,1,0,49,49,26,,,,,,,,,,,,,,,,,,,,,,,,j,0,0.6714755829889327,,,,,,,,,,,,,,,,,,,,,,,102,002,2021_Sep_22_1523,joplin1,2021.2.3,60.01150734655219,
,1 1 0 0 0 1 1 0 1 1,4,categoryB,j,genfile2.csv,0,,,,,,,,,0,0,0,1,0,50,50,36,,,,,,,,,,,,,,,,,,,,,,,,f,0,1.050809167092666,,,,,,,,,,,,,,,,,,,,,,,102,002,2021_Sep_22_1523,joplin1,2021.2.3,60.01150734655219,
,0 0 1 0 0 0 0 1 0 0,8,categoryA,f,genfile2.csv,1,,,,,,,,,0,0,0,1,0,51,51,7,,,,,,,,,,,,,,,,,,,,,,,,f,1,0.24714779201894999,,,,,,,,,,,,,,,,,,,,,,,102,002,2021_Sep_22_1523,joplin1,2021.2.3,60.01150734655219,
,0 0 1 1 1 1 0 1 0 1,4,categoryB,j,genfile2.csv,0,,,,,,,,,0,0,0,1,0,52,52,39,,,,,,,,,,,,,,,,,,,,,,,,j,1,0.7633302081376314,,,,,,,,,,,,,,,,,,,,,,,102,002,2021_Sep_22_1523,joplin1,2021.2.3,60.01150734655219,
,1 1 1 0 0 0 0 0 1 0,6,categoryA,f,genfile2.csv,0,,,,,,,,,0,0,0,1,0,53,53,34,,,,,,,,,,,,,,,,,,,,,,,,j,0,0.5786191250663251,,,,,,,,,,,,,,,,,,,,,,,102,002,2021_Sep_22_1523,joplin1,2021.2.3,60.01150734655219,
,1 0 1 1 1 1 1 1 1 1,1,categoryB,j,genfile2.csv,0,,,,,,,,,0,0,0,1,0,54,54,51,,,,,,,,,,,,,,,,,,,,,,,,f,0,0.5139508340507746,,,,,,,,,,,,,,,,,,,,,,,102,002,2021_Sep_22_1523,joplin1,2021.2.3,60.01150734655219,
,0 1 1 0 1 1 0 1 1 0,4,categoryB,j,genfile2.csv,0,,,,,,,,,0,0,0,1,0,55,55,37,,,,,,,,,,,,,,,,,,,,,,,,f,0,0.49923633388243616,,,,,,,,,,,,,,,,,,,,,,,102,002,2021_Sep_22_1523,joplin1,2021.2.3,60.01150734655219,
,,,,,genfile2.csv,,,,,,,,,,0,0,0,1,,,,,,,,,,,,,,,,,,space,1.3908746249508113,,,,,,,,,,,,,,,,,,,,,,,,,,,,,,,,,,102,002,2021_Sep_22_1523,joplin1,2021.2.3,60.01150734655219,
,1 1 1 0 1 1 1 0 1 1,2,categoryB,j,genfile1.csv,0,,,,,,,,,0,1,1,0,0,0,0,47,,,,,,,,,,,,,,,,,,,,,,,,j,1,0.2915507920552045,,,,,,,,,,,,,,,,,,,,,,,102,002,2021_Sep_22_1523,joplin1,2021.2.3,60.01150734655219,
,0 0 1 1 1 1 1 0 0 1,4,categoryB,j,genfile1.csv,0,,,,,,,,,0,1,1,0,0,1,1,37,,,,,,,,,,,,,,,,,,,,,,,,j,1,0.3660817090421915,,,,,,,,,,,,,,,,,,,,,,,102,002,2021_Sep_22_1523,joplin1,2021.2.3,60.01150734655219,
,1 1 1 1 1 1 1 0 0 1,2,categoryB,j,genfile1.csv,0,,,,,,,,,0,1,1,0,0,2,2,46,,,,,,,,,,,,,,,,,,,,,,,,f,0,0.6387998748105019,,,,,,,,,,,,,,,,,,,,,,,102,002,2021_Sep_22_1523,joplin1,2021.2.3,60.01150734655219,
,0 1 1 0 1 0 1 0 1 1,4,categoryB,j,genfile1.csv,0,,,,,,,,,0,1,1,0,0,3,3,40,,,,,,,,,,,,,,,,,,,,,,,,f,0,0.33217874984256923,,,,,,,,,,,,,,,,,,,,,,,102,002,2021_Sep_22_1523,joplin1,2021.2.3,60.01150734655219,
,1 1 1 0 1 1 0 1 1 1,2,categoryB,j,genfile1.csv,1,,,,,,,,,0,1,1,0,0,4,4,13,,,,,,,,,,,,,,,,,,,,,,,,j,1,0.3567364579066634,,,,,,,,,,,,,,,,,,,,,,,102,002,2021_Sep_22_1523,joplin1,2021.2.3,60.01150734655219,
,1 1 1 1 1 1 1 1 1 1,0,categoryB,j,genfile1.csv,0,,,,,,,,,0,1,1,0,0,5,5,1,,,,,,,,,,,,,,,,,,,,,,,,j,1,0.38203320908360183,,,,,,,,,,,,,,,,,,,,,,,102,002,2021_Sep_22_1523,joplin1,2021.2.3,60.01150734655219,
,1 1 1 1 0 1 1 0 1 0,3,categoryB,j,genfile1.csv,0,,,,,,,,,0,1,1,0,0,6,6,42,,,,,,,,,,,,,,,,,,,,,,,,f,0,1.2534038329031318,,,,,,,,,,,,,,,,,,,,,,,102,002,2021_Sep_22_1523,joplin1,2021.2.3,60.01150734655219,
,0 0 0 1 0 0 0 0 1 0,8,categoryA,f,genfile1.csv,0,,,,,,,,,0,1,1,0,0,7,7,22,,,,,,,,,,,,,,,,,,,,,,,,f,1,0.1136908340267837,,,,,,,,,,,,,,,,,,,,,,,102,002,2021_Sep_22_1523,joplin1,2021.2.3,60.01150734655219,
,0 0 1 1 1 1 1 1 1 0,3,categoryB,j,genfile1.csv,0,,,,,,,,,0,1,1,0,0,8,8,41,,,,,,,,,,,,,,,,,,,,,,,,f,0,0.4590087500400841,,,,,,,,,,,,,,,,,,,,,,,102,002,2021_Sep_22_1523,joplin1,2021.2.3,60.01150734655219,
,1 0 1 1 1 1 1 1 0 1,2,categoryB,j,genfile1.csv,1,,,,,,,,,0,1,1,0,0,9,9,10,,,,,,,,,,,,,,,,,,,,,,,,j,1,0.39947116607800126,,,,,,,,,,,,,,,,,,,,,,,102,002,2021_Sep_22_1523,joplin1,2021.2.3,60.01150734655219,
,1 1 1 1 0 1 0 1 1 1,2,categoryB,j,genfile1.csv,0,,,,,,,,,0,1,1,0,0,10,10,50,,,,,,,,,,,,,,,,,,,,,,,,f,0,0.1659333750139922,,,,,,,,,,,,,,,,,,,,,,,102,002,2021_Sep_22_1523,joplin1,2021.2.3,60.01150734655219,
,0 0 0 0 1 1 0 0 1 1,6,categoryA,f,genfile1.csv,0,,,,,,,,,0,1,1,0,0,11,11,33,,,,,,,,,,,,,,,,,,,,,,,,j,0,0.2927569169551134,,,,,,,,,,,,,,,,,,,,,,,102,002,2021_Sep_22_1523,joplin1,2021.2.3,60.01150734655219,
,0 0 1 0 0 1 0 1 0 0,7,categoryA,f,genfile1.csv,0,,,,,,,,,0,1,1,0,0,12,12,27,,,,,,,,,,,,,,,,,,,,,,,,f,1,0.2627230000216514,,,,,,,,,,,,,,,,,,,,,,,102,002,2021_Sep_22_1523,joplin1,2021.2.3,60.01150734655219,
,1 1 0 1 1 1 1 0 1 1,2,categoryB,j,genfile1.csv,1,,,,,,,,,0,1,1,0,0,13,13,14,,,,,,,,,,,,,,,,,,,,,,,,f,0,0.468137500109151,,,,,,,,,,,,,,,,,,,,,,,102,002,2021_Sep_22_1523,joplin1,2021.2.3,60.01150734655219,
,0 1 1 1 1 1 1 1 1 0,2,categoryB,j,genfile1.csv,1,,,,,,,,,0,1,1,0,0,14,14,9,,,,,,,,,,,,,,,,,,,,,,,,j,1,0.015540207969024777,,,,,,,,,,,,,,,,,,,,,,,102,002,2021_Sep_22_1523,joplin1,2021.2.3,60.01150734655219,
,1 1 1 1 1 1 1 1 0 1,1,categoryB,j,genfile1.csv,0,,,,,,,,,0,1,1,0,0,15,15,55,,,,,,,,,,,,,,,,,,,,,,,,j,1,0.31879779091104865,,,,,,,,,,,,,,,,,,,,,,,102,002,2021_Sep_22_1523,joplin1,2021.2.3,60.01150734655219,
,0 1 0 1 0 1 1 0 1 1,4,categoryB,j,genfile1.csv,0,,,,,,,,,0,1,1,0,0,16,16,39,,,,,,,,,,,,,,,,,,,,,,,,f,0,0.21459279209375381,,,,,,,,,,,,,,,,,,,,,,,102,002,2021_Sep_22_1523,joplin1,2021.2.3,60.01150734655219,
,1 0 1 1 1 1 0 1 0 1,3,categoryB,j,genfile1.csv,0,,,,,,,,,0,1,1,0,0,17,17,43,,,,,,,,,,,,,,,,,,,,,,,,j,1,0.0995394999627024,,,,,,,,,,,,,,,,,,,,,,,102,002,2021_Sep_22_1523,joplin1,2021.2.3,60.01150734655219,
,1 1 1 1 0 1 1 1 1 1,1,categoryB,j,genfile1.csv,0,,,,,,,,,0,1,1,0,0,18,18,54,,,,,,,,,,,,,,,,,,,,,,,,f,0,0.33537070895545185,,,,,,,,,,,,,,,,,,,,,,,102,002,2021_Sep_22_1523,joplin1,2021.2.3,60.01150734655219,
,0 1 0 1 0 0 0 0 0 1,7,categoryA,f,genfile1.csv,0,,,,,,,,,0,1,1,0,0,19,19,28,,,,,,,,,,,,,,,,,,,,,,,,f,1,0.08920733397826552,,,,,,,,,,,,,,,,,,,,,,,102,002,2021_Sep_22_1523,joplin1,2021.2.3,60.01150734655219,
,1 1 0 1 1 1 1 1 1 1,1,categoryB,j,genfile1.csv,0,,,,,,,,,0,1,1,0,0,20,20,52,,,,,,,,,,,,,,,,,,,,,,,,f,0,0.044534459011629224,,,,,,,,,,,,,,,,,,,,,,,102,002,2021_Sep_22_1523,joplin1,2021.2.3,60.01150734655219,
,0 0 0 1 0 0 1 0 0 0,8,categoryA,f,genfile1.csv,1,,,,,,,,,0,1,1,0,0,21,21,6,,,,,,,,,,,,,,,,,,,,,,,,j,0,0.31333341682329774,,,,,,,,,,,,,,,,,,,,,,,102,002,2021_Sep_22_1523,joplin1,2021.2.3,60.01150734655219,
,0 1 0 0 0 0 0 0 0 1,8,categoryA,f,genfile1.csv,0,,,,,,,,,0,1,1,0,0,22,22,25,,,,,,,,,,,,,,,,,,,,,,,,f,1,0.10828316584229469,,,,,,,,,,,,,,,,,,,,,,,102,002,2021_Sep_22_1523,joplin1,2021.2.3,60.01150734655219,
,0 1 0 1 0 0 0 0 0 0,8,categoryA,f,genfile1.csv,0,,,,,,,,,0,1,1,0,0,23,23,21,,,,,,,,,,,,,,,,,,,,,,,,j,0,0.24637766717933118,,,,,,,,,,,,,,,,,,,,,,,102,002,2021_Sep_22_1523,joplin1,2021.2.3,60.01150734655219,
,0 0 1 0 0 0 0 1 0 0,8,categoryA,f,genfile1.csv,1,,,,,,,,,0,1,1,0,0,24,24,7,,,,,,,,,,,,,,,,,,,,,,,,j,0,1.9400664588902146,,,,,,,,,,,,,,,,,,,,,,,102,002,2021_Sep_22_1523,joplin1,2021.2.3,60.01150734655219,
,1 0 0 1 1 0 1 0 0 0,6,categoryA,f,genfile1.csv,0,,,,,,,,,0,1,1,0,0,25,25,34,,,,,,,,,,,,,,,,,,,,,,,,f,1,0.5887210830114782,,,,,,,,,,,,,,,,,,,,,,,102,002,2021_Sep_22_1523,joplin1,2021.2.3,60.01150734655219,
,0 0 1 1 1 1 1 1 0 0,4,categoryB,j,genfile1.csv,1,,,,,,,,,0,1,1,0,0,26,26,15,,,,,,,,,,,,,,,,,,,,,,,,f,0,0.6430847090668976,,,,,,,,,,,,,,,,,,,,,,,102,002,2021_Sep_22_1523,joplin1,2021.2.3,60.01150734655219,
,1 0 0 0 0 1 0 0 0 0,8,categoryA,f,genfile1.csv,0,,,,,,,,,0,1,1,0,0,27,27,23,,,,,,,,,,,,,,,,,,,,,,,,j,0,0.4134369590319693,,,,,,,,,,,,,,,,,,,,,,,102,002,2021_Sep_22_1523,joplin1,2021.2.3,60.01150734655219,
,0 0 0 0 0 0 0 0 0 1,9,categoryA,f,genfile1.csv,0,,,,,,,,,0,1,1,0,0,28,28,18,,,,,,,,,,,,,,,,,,,,,,,,j,0,0.2525195840280503,,,,,,,,,,,,,,,,,,,,,,,102,002,2021_Sep_22_1523,joplin1,2021.2.3,60.01150734655219,
,0 0 0 0 0 0 0 1 0 0,9,categoryA,f,genfile1.csv,0,,,,,,,,,0,1,1,0,0,29,29,20,,,,,,,,,,,,,,,,,,,,,,,,f,1,0.30547112482599914,,,,,,,,,,,,,,,,,,,,,,,102,002,2021_Sep_22_1523,joplin1,2021.2.3,60.01150734655219,
,0 0 0 1 1 1 1 0 0 0,6,categoryA,f,genfile1.csv,1,,,,,,,,,0,1,1,0,0,30,30,5,,,,,,,,,,,,,,,,,,,,,,,,f,1,0.3560942499898374,,,,,,,,,,,,,,,,,,,,,,,102,002,2021_Sep_22_1523,joplin1,2021.2.3,60.01150734655219,
,1 1 1 1 1 1 1 0 1 1,1,categoryB,j,genfile1.csv,0,,,,,,,,,0,1,1,0,0,31,31,53,,,,,,,,,,,,,,,,,,,,,,,,f,0,0.6845652919728309,,,,,,,,,,,,,,,,,,,,,,,102,002,2021_Sep_22_1523,joplin1,2021.2.3,60.01150734655219,
,0 1 1 1 1 1 1 1 1 1,1,categoryB,j,genfile1.csv,0,,,,,,,,,0,1,1,0,0,32,32,51,,,,,,,,,,,,,,,,,,,,,,,,j,1,0.4655767090152949,,,,,,,,,,,,,,,,,,,,,,,102,002,2021_Sep_22_1523,joplin1,2021.2.3,60.01150734655219,
,0 1 0 0 0 0 0 0 1 0,8,categoryA,f,genfile1.csv,1,,,,,,,,,0,1,1,0,0,33,33,3,,,,,,,,,,,,,,,,,,,,,,,,f,1,0.2926489170640707,,,,,,,,,,,,,,,,,,,,,,,102,002,2021_Sep_22_1523,joplin1,2021.2.3,60.01150734655219,
,0 0 0 0 0 0 0 0 0 0,10,categoryA,f,genfile1.csv,0,,,,,,,,,0,1,1,0,0,34,34,0,,,,,,,,,,,,,,,,,,,,,,,,f,1,0.47952837496995926,,,,,,,,,,,,,,,,,,,,,,,102,002,2021_Sep_22_1523,joplin1,2021.2.3,60.01150734655219,
,0 0 1 0 0 1 0 1 1 0,6,categoryA,f,genfile1.csv,0,,,,,,,,,0,1,1,0,0,35,35,35,,,,,,,,,,,,,,,,,,,,,,,,j,0,0.4435164160095155,,,,,,,,,,,,,,,,,,,,,,,102,002,2021_Sep_22_1523,joplin1,2021.2.3,60.01150734655219,
,1 1 0 1 1 1 0 1 0 0,4,categoryB,j,genfile1.csv,0,,,,,,,,,0,1,1,0,0,36,36,38,,,,,,,,,,,,,,,,,,,,,,,,f,0,0.5746727499645203,,,,,,,,,,,,,,,,,,,,,,,102,002,2021_Sep_22_1523,joplin1,2021.2.3,60.01150734655219,
,1 1 0 0 0 1 0 0 1 0,6,categoryA,f,genfile1.csv,0,,,,,,,,,0,1,1,0,0,37,37,31,,,,,,,,,,,,,,,,,,,,,,,,j,0,0.3420324169564992,,,,,,,,,,,,,,,,,,,,,,,102,002,2021_Sep_22_1523,joplin1,2021.2.3,60.01150734655219,
,0 1 0 0 0 0 0 1 0 1,7,categoryA,f,genfile1.csv,0,,,,,,,,,0,1,1,0,0,38,38,26,,,,,,,,,,,,,,,,,,,,,,,,j,0,0.7101838330272585,,,,,,,,,,,,,,,,,,,,,,,102,002,2021_Sep_22_1523,joplin1,2021.2.3,60.01150734655219,
,1 0 0 1 0 0 0 0 1 0,7,categoryA,f,genfile1.csv,0,,,,,,,,,0,1,1,0,0,39,39,30,,,,,,,,,,,,,,,,,,,,,,,,j,0,0.31966408295556903,,,,,,,,,,,,,,,,,,,,,,,102,002,2021_Sep_22_1523,joplin1,2021.2.3,60.01150734655219,
,1 0 1 1 0 0 0 1 1 1,4,categoryB,j,genfile1.csv,0,,,,,,,,,0,1,1,0,0,40,40,36,,,,,,,,,,,,,,,,,,,,,,,,j,1,0.47321708407253027,,,,,,,,,,,,,,,,,,,,,,,102,002,2021_Sep_22_1523,joplin1,2021.2.3,60.01150734655219,
,1 1 1 1 1 0 1 0 1 0,3,categoryB,j,genfile1.csv,0,,,,,,,,,0,1,1,0,0,41,41,44,,,,,,,,,,,,,,,,,,,,,,,,f,0,0.12561304192058742,,,,,,,,,,,,,,,,,,,,,,,102,002,2021_Sep_22_1523,joplin1,2021.2.3,60.01150734655219,
,0 0 1 0 1 0 0 0 0 0,8,categoryA,f,genfile1.csv,0,,,,,,,,,0,1,1,0,0,42,42,24,,,,,,,,,,,,,,,,,,,,,,,,f,1,0.253555916948244,,,,,,,,,,,,,,,,,,,,,,,102,002,2021_Sep_22_1523,joplin1,2021.2.3,60.01150734655219,
,1 1 1 0 0 0 0 1 1 1,4,categoryB,j,genfile1.csv,1,,,,,,,,,0,1,1,0,0,43,43,12,,,,,,,,,,,,,,,,,,,,,,,,j,1,0.04239524994045496,,,,,,,,,,,,,,,,,,,,,,,102,002,2021_Sep_22_1523,joplin1,2021.2.3,60.01150734655219,
,1 0 1 1 1 1 1 0 1 1,2,categoryB,j,genfile1.csv,0,,,,,,,,,0,1,1,0,0,44,44,48,,,,,,,,,,,,,,,,,,,,,,,,f,0,0.3426559998188168,,,,,,,,,,,,,,,,,,,,,,,102,002,2021_Sep_22_1523,joplin1,2021.2.3,60.01150734655219,
,1 1 0 0 0 0 0 0 1 1,6,categoryA,f,genfile1.csv,1,,,,,,,,,0,1,1,0,0,45,45,8,,,,,,,,,,,,,,,,,,,,,,,,f,1,0.18401787499897182,,,,,,,,,,,,,,,,,,,,,,,102,002,2021_Sep_22_1523,joplin1,2021.2.3,60.01150734655219,
,0 1 1 0 0 0 0 1 0 1,6,categoryA,f,genfile1.csv,0,,,,,,,,,0,1,1,0,0,46,46,32,,,,,,,,,,,,,,,,,,,,,,,,j,0,0.22260358300991356,,,,,,,,,,,,,,,,,,,,,,,102,002,2021_Sep_22_1523,joplin1,2021.2.3,60.01150734655219,
,0 0 0 0 0 0 1 0 0 0,9,categoryA,f,genfile1.csv,0,,,,,,,,,0,1,1,0,0,47,47,17,,,,,,,,,,,,,,,,,,,,,,,,j,0,0.5010625831782818,,,,,,,,,,,,,,,,,,,,,,,102,002,2021_Sep_22_1523,joplin1,2021.2.3,60.01150734655219,
,1 0 0 0 0 0 0 0 0 1,8,categoryA,f,genfile1.csv,1,,,,,,,,,0,1,1,0,0,48,48,2,,,,,,,,,,,,,,,,,,,,,,,,f,1,0.7830605418421328,,,,,,,,,,,,,,,,,,,,,,,102,002,2021_Sep_22_1523,joplin1,2021.2.3,60.01150734655219,
,0 0 0 0 1 0 0 1 1 0,7,categoryA,f,genfile1.csv,0,,,,,,,,,0,1,1,0,0,49,49,29,,,,,,,,,,,,,,,,,,,,,,,,f,1,0.35712341708131135,,,,,,,,,,,,,,,,,,,,,,,102,002,2021_Sep_22_1523,joplin1,2021.2.3,60.01150734655219,
,1 1 1 1 0 1 0 0 1 1,3,categoryB,j,genfile1.csv,0,,,,,,,,,0,1,1,0,0,50,50,45,,,,,,,,,,,,,,,,,,,,,,,,j,1,0.35757487500086427,,,,,,,,,,,,,,,,,,,,,,,102,002,2021_Sep_22_1523,joplin1,2021.2.3,60.01150734655219,
,1 0 0 0 0 0 0 0 0 0,9,categoryA,f,genfile1.csv,0,,,,,,,,,0,1,1,0,0,51,51,16,,,,,,,,,,,,,,,,,,,,,,,,f,1,0.26210774993523955,,,,,,,,,,,,,,,,,,,,,,,102,002,2021_Sep_22_1523,joplin1,2021.2.3,60.01150734655219,
,0 0 0 0 1 0 0 0 0 0,9,categoryA,f,genfile1.csv,0,,,,,,,,,0,1,1,0,0,52,52,19,,,,,,,,,,,,,,,,,,,,,,,,j,0,0.47368458309210837,,,,,,,,,,,,,,,,,,,,,,,102,002,2021_Sep_22_1523,joplin1,2021.2.3,60.01150734655219,
,1 1 0 1 0 0 1 0 1 1,4,categoryB,j,genfile1.csv,1,,,,,,,,,0,1,1,0,0,53,53,11,,,,,,,,,,,,,,,,,,,,,,,,j,1,0.35007695900276303,,,,,,,,,,,,,,,,,,,,,,,102,002,2021_Sep_22_1523,joplin1,2021.2.3,60.01150734655219,
,0 1 1 1 1 1 1 0 1 1,2,categoryB,j,genfile1.csv,0,,,,,,,,,0,1,1,0,0,54,54,49,,,,,,,,,,,,,,,,,,,,,,,,f,0,0.4233315831515938,,,,,,,,,,,,,,,,,,,,,,,102,002,2021_Sep_22_1523,joplin1,2021.2.3,60.01150734655219,
,0 0 1 0 1 1 0 1 0 0,6,categoryA,f,genfile1.csv,1,,,,,,,,,0,1,1,0,0,55,55,4,,,,,,,,,,,,,,,,,,,,,,,,f,1,0.4933742091525346,,,,,,,,,,,,,,,,,,,,,,,102,002,2021_Sep_22_1523,joplin1,2021.2.3,60.01150734655219,
,,,,,genfile1.csv,,,,,,,,,,0,1,1,0,,,,,,,,,,,,,,,,,,space,1.5517572078388184,,,,,,,,,,,,,,,,,,,,,,,,,,,,,,,,,,102,002,2021_Sep_22_1523,joplin1,2021.2.3,60.01150734655219,
,,,,,,,,,,,,,,,,,,,,,,,,,,,,,,,,,,,,,,,,,,,,,,,,,space,2.145919208182022,,,,,,,,,,,,,,,,,,,,,102,002,2021_Sep_22_1523,joplin1,2021.2.3,60.01150734655219,
,,,,,,,,,,,,,,,,,,,,,,,,,,,,,,,,,,,,,,,,,,,,,,,,,,,return,11.225875624921173,,,,,,,,,,,,,,,,,,,102,002,2021_Sep_22_1523,joplin1,2021.2.3,60.01150734655219,
,,,,,,,,,,,,,,,,,,,,,,,,,,,,,,,,,,,,,,,,,,,,,,,,,,,,,0.7,radio,0.3,Are you Hispanic/Latino?,0,None,None,no,3.7506350418552756,,,,,,,,,,102,002,2021_Sep_22_1523,joplin1,2021.2.3,60.01150734655219,
,,,,,,,,,,,,,,,,,,,,,,,,,,,,,,,,,,,,,,,,,,,,,,,,,,,,,0.7,radio,0.3,Are you an American Indian or Alaska Native?,1,None,None,no,9.191311292117462,,,,,,,,,,102,002,2021_Sep_22_1523,joplin1,2021.2.3,60.01150734655219,
,,,,,,,,,,,,,,,,,,,,,,,,,,,,,,,,,,,,,,,,,,,,,,,,,,,,,0.7,radio,0.3,Are you Asian?,2,None,None,no,12.649018542142585,,,,,,,,,,102,002,2021_Sep_22_1523,joplin1,2021.2.3,60.01150734655219,
,,,,,,,,,,,,,,,,,,,,,,,,,,,,,,,,,,,,,,,,,,,,,,,,,,,,,0.7,radio,0.3,Are you Black or African American?,3,None,None,no,14.38895154115744,,,,,,,,,,102,002,2021_Sep_22_1523,joplin1,2021.2.3,60.01150734655219,
,,,,,,,,,,,,,,,,,,,,,,,,,,,,,,,,,,,,,,,,,,,,,,,,,,,,,0.7,radio,0.3,Are you a Native Hawaiian or other Pacific Islander?,4,None,None,no,13.456556667108089,,,,,,,,,,102,002,2021_Sep_22_1523,joplin1,2021.2.3,60.01150734655219,
,,,,,,,,,,,,,,,,,,,,,,,,,,,,,,,,,,,,,,,,,,,,,,,,,,,,,0.7,radio,0.3,Are you White?,5,None,None,yes,17.21590937511064,,,,,,,,,,102,002,2021_Sep_22_1523,joplin1,2021.2.3,60.01150734655219,
,,,,,,,,,,,,,,,,,,,,,,,,,,,,,,,,,,,,,,,,,,,,,,,,,,,,,0.85,radio,0.3,"Do you have any history of neurological issues such as stroke, head injury or a neurodegenerative disorder?",6,None,None,no,19.1819393329788,,,,,,,,,,102,002,2021_Sep_22_1523,joplin1,2021.2.3,60.01150734655219,
,,,,,,,,,,,,,,,,,,,,,,,,,,,,,,,,,,,,,,,,,,,,,,,,,,,,,,,,,,,,,,return,26.194605916040018,,,,,,,,102,002,2021_Sep_22_1523,joplin1,2021.2.3,60.01150734655219,
,,,,,,,,,,,,,,,,,,,,,,,,,,,,,,,,,,,,,,,,,,,,,,,,,,,,,,,,,,,,,,,,return,2.787115499842912,,,,,,102,002,2021_Sep_22_1523,joplin1,2021.2.3,60.01150734655219,
,,,,,,,,,,,,,,,,,,,,,,,,,,,,,,,,,,,,,,,,,,,,,,,,,,,,,,,,,,,,,,,,,,female,18,y,2.520147749921307,,102,002,2021_Sep_22_1523,joplin1,2021.2.3,60.01150734655219,
,,,,,,,,,,,,,,,,,,,,,,,,,,,,,,,,,,,,,,,,,,,,,,,,,,,,,,,,,,,,,,,,,,,,,,0,,,,,,,
