train_set,stim_id,sums_feat,category,correct_key,gen_file,train_item,train_runs.thisRepN,train_runs.thisTrialN,train_runs.thisN,train_runs.thisIndex,train_trials.thisRepN,train_trials.thisTrialN,train_trials.thisN,train_trials.thisIndex,test_runs.thisRepN,test_runs.thisTrialN,test_runs.thisN,test_runs.thisIndex,test_trials.thisRepN,test_trials.thisTrialN,test_trials.thisN,test_trials.thisIndex,welcome_key.keys,welcome_key.rt,welcome_key.started,welcome_key.stopped,train_inst1_key.keys,train_inst1_key.rt,train_inst2_key.keys,train_inst2_key.rt,train_begin_key.keys,train_begin_key.rt,train_key.keys,train_key.corr,train_key.rt,break_key.keys,break_key.rt,key_resp.keys,key_resp.rt,test_inst1_key.keys,test_inst1_key.rt,test_inst2_key.keys,test_inst2_key.rt,test_begin_key.keys,test_begin_key.rt,test_key.keys,test_key.corr,test_key.rt,test_end_key.keys,test_end_key.rt,demo_inst1_key.keys,demo_inst1_key.rt,form.questionWidth,form.type,form.respWidth,form.itemText,form.index,form.font,form.markerColor,form.response,form.rt,form_key.keys,form_key.rt,demo_inst2_key.keys,demo_inst2_key.rt,gender_string,age_string,demo4_key.keys,demo4_key.rt,typedWord,participant,session,date,expName,psychopyVersion,frameRate,
,,,,,,,,,,,,,,,,,,,,,,,space,22.550705041037872,271.14033537497744,None,,,,,,,,,,,,,,,,,,,,,,,,,,,,,,,,,,,,,,,,,,,,,103,002,2021_Sep_24_0914,joplin1,2021.2.3,59.83572103779843,
,,,,,,,,,,,,,,,,,,,,,,,,,,,j,11.33832308393903,,,,,,,,,,,,,,,,,,,,,,,,,,,,,,,,,,,,,,,,,,,103,002,2021_Sep_24_0914,joplin1,2021.2.3,59.83572103779843,
,,,,,,,,,,,,,,,,,,,,,,,,,,,,,space,6.243878457928076,,,,,,,,,,,,,,,,,,,,,,,,,,,,,,,,,,,,,,,,,103,002,2021_Sep_24_0914,joplin1,2021.2.3,59.83572103779843,
,,,,,,,,,,,,,,,,,,,,,,,,,,,,,,,space,1.463872083928436,,,,,,,,,,,,,,,,,,,,,,,,,,,,,,,,,,,,,,,103,002,2021_Sep_24_0914,joplin1,2021.2.3,59.83572103779843,
_train_cond.csv,1 0 0 0 0 0 0 0 0 1,2,categoryB,j,,,0,0,0,2,0,0,0,7,,,,,,,,,,,,,,,,,,,f,0,0.6714127920567989,,,,,,,,,,,,,,,,,,,,,,,,,,,,,,,,,,,,103,002,2021_Sep_24_0914,joplin1,2021.2.3,59.83572103779843,
_train_cond.csv,0 0 1 0 1 1 0 1 0 0,4,categoryB,j,,,0,0,0,2,0,1,1,9,,,,,,,,,,,,,,,,,,,f,0,0.3372910001780838,,,,,,,,,,,,,,,,,,,,,,,,,,,,,,,,,,,,103,002,2021_Sep_24_0914,joplin1,2021.2.3,59.83572103779843,
_train_cond.csv,0 1 0 0 0 0 0 0 1 0,2,categoryB,j,,,0,0,0,2,0,2,2,8,,,,,,,,,,,,,,,,,,,j,1,0.26579479197971523,,,,,,,,,,,,,,,,,,,,,,,,,,,,,,,,,,,,103,002,2021_Sep_24_0914,joplin1,2021.2.3,59.83572103779843,
_train_cond.csv,0 0 0 1 1 1 1 0 0 0,4,categoryB,j,,,0,0,0,2,0,3,3,10,,,,,,,,,,,,,,,,,,,j,1,0.28610779205337167,,,,,,,,,,,,,,,,,,,,,,,,,,,,,,,,,,,,103,002,2021_Sep_24_0914,joplin1,2021.2.3,59.83572103779843,
_train_cond.csv,0 0 1 1 1 1 1 1 0 0,6,categoryA,f,,,0,0,0,2,0,4,4,6,,,,,,,,,,,,,,,,,,,j,0,0.2153249999973923,,,,,,,,,,,,,,,,,,,,,,,,,,,,,,,,,,,,103,002,2021_Sep_24_0914,joplin1,2021.2.3,59.83572103779843,
_train_cond.csv,1 1 0 1 1 1 1 0 1 1,8,categoryA,f,,,0,0,0,2,0,5,5,5,,,,,,,,,,,,,,,,,,,f,1,0.4363184589892626,,,,,,,,,,,,,,,,,,,,,,,,,,,,,,,,,,,,103,002,2021_Sep_24_0914,joplin1,2021.2.3,59.83572103779843,
_train_cond.csv,0 0 0 1 0 0 1 0 0 0,2,categoryB,j,,,0,0,0,2,0,6,6,11,,,,,,,,,,,,,,,,,,,j,1,0.3447144578676671,,,,,,,,,,,,,,,,,,,,,,,,,,,,,,,,,,,,103,002,2021_Sep_24_0914,joplin1,2021.2.3,59.83572103779843,
_train_cond.csv,0 1 1 1 1 1 1 1 1 0,8,categoryA,f,,,0,0,0,2,0,7,7,0,,,,,,,,,,,,,,,,,,,j,0,0.27267729211598635,,,,,,,,,,,,,,,,,,,,,,,,,,,,,,,,,,,,103,002,2021_Sep_24_0914,joplin1,2021.2.3,59.83572103779843,
_train_cond.csv,1 1 1 0 1 1 0 1 1 1,8,categoryA,f,,,0,0,0,2,0,8,8,4,,,,,,,,,,,,,,,,,,,f,1,0.2910114589612931,,,,,,,,,,,,,,,,,,,,,,,,,,,,,,,,,,,,103,002,2021_Sep_24_0914,joplin1,2021.2.3,59.83572103779843,
_train_cond.csv,0 0 1 0 0 0 0 1 0 0,2,categoryB,j,,,0,0,0,2,0,9,9,12,,,,,,,,,,,,,,,,,,,j,1,0.2932764170691371,,,,,,,,,,,,,,,,,,,,,,,,,,,,,,,,,,,,103,002,2021_Sep_24_0914,joplin1,2021.2.3,59.83572103779843,
_train_cond.csv,1 1 0 0 0 0 0 0 1 1,4,categoryB,j,,,0,0,0,2,0,10,10,13,,,,,,,,,,,,,,,,,,,f,0,0.3515069999266416,,,,,,,,,,,,,,,,,,,,,,,,,,,,,,,,,,,,103,002,2021_Sep_24_0914,joplin1,2021.2.3,59.83572103779843,
_train_cond.csv,1 1 0 1 0 0 1 0 1 1,6,categoryA,f,,,0,0,0,2,0,11,11,2,,,,,,,,,,,,,,,,,,,f,1,0.31878029205836356,,,,,,,,,,,,,,,,,,,,,,,,,,,,,,,,,,,,103,002,2021_Sep_24_0914,joplin1,2021.2.3,59.83572103779843,
_train_cond.csv,1 1 1 0 0 0 0 1 1 1,6,categoryA,f,,,0,0,0,2,0,12,12,3,,,,,,,,,,,,,,,,,,,f,1,0.26408287486992776,,,,,,,,,,,,,,,,,,,,,,,,,,,,,,,,,,,,103,002,2021_Sep_24_0914,joplin1,2021.2.3,59.83572103779843,
_train_cond.csv,1 0 1 1 1 1 1 1 0 1,8,categoryA,f,,,0,0,0,2,0,13,13,1,,,,,,,,,,,,,,,,,,,f,1,0.37055866699665785,,,,,,,,,,,,,,,,,,,,,,,,,,,,,,,,,,,,103,002,2021_Sep_24_0914,joplin1,2021.2.3,59.83572103779843,
_train_cond.csv,1 1 0 0 0 0 0 0 1 1,4,categoryB,j,,,0,0,0,2,1,0,14,13,,,,,,,,,,,,,,,,,,,f,0,0.2664660420268774,,,,,,,,,,,,,,,,,,,,,,,,,,,,,,,,,,,,103,002,2021_Sep_24_0914,joplin1,2021.2.3,59.83572103779843,
_train_cond.csv,1 1 0 1 0 0 1 0 1 1,6,categoryA,f,,,0,0,0,2,1,1,15,2,,,,,,,,,,,,,,,,,,,f,1,0.41542087495326996,,,,,,,,,,,,,,,,,,,,,,,,,,,,,,,,,,,,103,002,2021_Sep_24_0914,joplin1,2021.2.3,59.83572103779843,
_train_cond.csv,0 1 1 1 1 1 1 1 1 0,8,categoryA,f,,,0,0,0,2,1,2,16,0,,,,,,,,,,,,,,,,,,,j,0,0.32443637517280877,,,,,,,,,,,,,,,,,,,,,,,,,,,,,,,,,,,,103,002,2021_Sep_24_0914,joplin1,2021.2.3,59.83572103779843,
_train_cond.csv,0 0 1 1 1 1 1 1 0 0,6,categoryA,f,,,0,0,0,2,1,3,17,6,,,,,,,,,,,,,,,,,,,f,1,0.28610645793378353,,,,,,,,,,,,,,,,,,,,,,,,,,,,,,,,,,,,103,002,2021_Sep_24_0914,joplin1,2021.2.3,59.83572103779843,
_train_cond.csv,0 0 0 1 0 0 1 0 0 0,2,categoryB,j,,,0,0,0,2,1,4,18,11,,,,,,,,,,,,,,,,,,,j,1,0.3284347499720752,,,,,,,,,,,,,,,,,,,,,,,,,,,,,,,,,,,,103,002,2021_Sep_24_0914,joplin1,2021.2.3,59.83572103779843,
_train_cond.csv,0 0 1 0 0 0 0 1 0 0,2,categoryB,j,,,0,0,0,2,1,5,19,12,,,,,,,,,,,,,,,,,,,j,1,0.5537602079566568,,,,,,,,,,,,,,,,,,,,,,,,,,,,,,,,,,,,103,002,2021_Sep_24_0914,joplin1,2021.2.3,59.83572103779843,
_train_cond.csv,1 0 1 1 1 1 1 1 0 1,8,categoryA,f,,,0,0,0,2,1,6,20,1,,,,,,,,,,,,,,,,,,,f,1,0.2988620838150382,,,,,,,,,,,,,,,,,,,,,,,,,,,,,,,,,,,,103,002,2021_Sep_24_0914,joplin1,2021.2.3,59.83572103779843,
_train_cond.csv,1 1 0 1 1 1 1 0 1 1,8,categoryA,f,,,0,0,0,2,1,7,21,5,,,,,,,,,,,,,,,,,,,f,1,0.4528907500207424,,,,,,,,,,,,,,,,,,,,,,,,,,,,,,,,,,,,103,002,2021_Sep_24_0914,joplin1,2021.2.3,59.83572103779843,
_train_cond.csv,0 0 1 0 1 1 0 1 0 0,4,categoryB,j,,,0,0,0,2,1,8,22,9,,,,,,,,,,,,,,,,,,,j,1,0.2660014999564737,,,,,,,,,,,,,,,,,,,,,,,,,,,,,,,,,,,,103,002,2021_Sep_24_0914,joplin1,2021.2.3,59.83572103779843,
_train_cond.csv,1 0 0 0 0 0 0 0 0 1,2,categoryB,j,,,0,0,0,2,1,9,23,7,,,,,,,,,,,,,,,,,,,f,0,0.27746158302761614,,,,,,,,,,,,,,,,,,,,,,,,,,,,,,,,,,,,103,002,2021_Sep_24_0914,joplin1,2021.2.3,59.83572103779843,
_train_cond.csv,1 1 1 0 0 0 0 1 1 1,6,categoryA,f,,,0,0,0,2,1,10,24,3,,,,,,,,,,,,,,,,,,,f,1,0.5290291251149029,,,,,,,,,,,,,,,,,,,,,,,,,,,,,,,,,,,,103,002,2021_Sep_24_0914,joplin1,2021.2.3,59.83572103779843,
_train_cond.csv,1 1 1 0 1 1 0 1 1 1,8,categoryA,f,,,0,0,0,2,1,11,25,4,,,,,,,,,,,,,,,,,,,f,1,0.2824240829795599,,,,,,,,,,,,,,,,,,,,,,,,,,,,,,,,,,,,103,002,2021_Sep_24_0914,joplin1,2021.2.3,59.83572103779843,
_train_cond.csv,0 0 0 1 1 1 1 0 0 0,4,categoryB,j,,,0,0,0,2,1,12,26,10,,,,,,,,,,,,,,,,,,,f,0,0.3510903751011938,,,,,,,,,,,,,,,,,,,,,,,,,,,,,,,,,,,,103,002,2021_Sep_24_0914,joplin1,2021.2.3,59.83572103779843,
_train_cond.csv,0 1 0 0 0 0 0 0 1 0,2,categoryB,j,,,0,0,0,2,1,13,27,8,,,,,,,,,,,,,,,,,,,j,1,0.22386741708032787,,,,,,,,,,,,,,,,,,,,,,,,,,,,,,,,,,,,103,002,2021_Sep_24_0914,joplin1,2021.2.3,59.83572103779843,
_train_cond.csv,0 1 0 0 0 0 0 0 1 0,2,categoryB,j,,,0,0,0,2,2,0,28,8,,,,,,,,,,,,,,,,,,,j,1,0.3093976660165936,,,,,,,,,,,,,,,,,,,,,,,,,,,,,,,,,,,,103,002,2021_Sep_24_0914,joplin1,2021.2.3,59.83572103779843,
_train_cond.csv,0 0 1 0 1 1 0 1 0 0,4,categoryB,j,,,0,0,0,2,2,1,29,9,,,,,,,,,,,,,,,,,,,j,1,0.2477790410630405,,,,,,,,,,,,,,,,,,,,,,,,,,,,,,,,,,,,103,002,2021_Sep_24_0914,joplin1,2021.2.3,59.83572103779843,
_train_cond.csv,1 1 0 1 0 0 1 0 1 1,6,categoryA,f,,,0,0,0,2,2,2,30,2,,,,,,,,,,,,,,,,,,,f,1,0.4448995408602059,,,,,,,,,,,,,,,,,,,,,,,,,,,,,,,,,,,,103,002,2021_Sep_24_0914,joplin1,2021.2.3,59.83572103779843,
_train_cond.csv,0 0 0 1 1 1 1 0 0 0,4,categoryB,j,,,0,0,0,2,2,3,31,10,,,,,,,,,,,,,,,,,,,f,0,0.3218467081896961,,,,,,,,,,,,,,,,,,,,,,,,,,,,,,,,,,,,103,002,2021_Sep_24_0914,joplin1,2021.2.3,59.83572103779843,
_train_cond.csv,0 0 0 1 0 0 1 0 0 0,2,categoryB,j,,,0,0,0,2,2,4,32,11,,,,,,,,,,,,,,,,,,,j,1,0.2592087909579277,,,,,,,,,,,,,,,,,,,,,,,,,,,,,,,,,,,,103,002,2021_Sep_24_0914,joplin1,2021.2.3,59.83572103779843,
_train_cond.csv,0 0 1 1 1 1 1 1 0 0,6,categoryA,f,,,0,0,0,2,2,5,33,6,,,,,,,,,,,,,,,,,,,j,0,0.32704204181209207,,,,,,,,,,,,,,,,,,,,,,,,,,,,,,,,,,,,103,002,2021_Sep_24_0914,joplin1,2021.2.3,59.83572103779843,
_train_cond.csv,1 1 1 0 1 1 0 1 1 1,8,categoryA,f,,,0,0,0,2,2,6,34,4,,,,,,,,,,,,,,,,,,,f,1,0.4166997908614576,,,,,,,,,,,,,,,,,,,,,,,,,,,,,,,,,,,,103,002,2021_Sep_24_0914,joplin1,2021.2.3,59.83572103779843,
_train_cond.csv,1 0 0 0 0 0 0 0 0 1,2,categoryB,j,,,0,0,0,2,2,7,35,7,,,,,,,,,,,,,,,,,,,f,0,0.334099082974717,,,,,,,,,,,,,,,,,,,,,,,,,,,,,,,,,,,,103,002,2021_Sep_24_0914,joplin1,2021.2.3,59.83572103779843,
_train_cond.csv,1 1 0 0 0 0 0 0 1 1,4,categoryB,j,,,0,0,0,2,2,8,36,13,,,,,,,,,,,,,,,,,,,f,0,0.36857375013642013,,,,,,,,,,,,,,,,,,,,,,,,,,,,,,,,,,,,103,002,2021_Sep_24_0914,joplin1,2021.2.3,59.83572103779843,
_train_cond.csv,1 1 0 1 1 1 1 0 1 1,8,categoryA,f,,,0,0,0,2,2,9,37,5,,,,,,,,,,,,,,,,,,,f,1,0.30406795907765627,,,,,,,,,,,,,,,,,,,,,,,,,,,,,,,,,,,,103,002,2021_Sep_24_0914,joplin1,2021.2.3,59.83572103779843,
_train_cond.csv,0 0 1 0 0 0 0 1 0 0,2,categoryB,j,,,0,0,0,2,2,10,38,12,,,,,,,,,,,,,,,,,,,j,1,0.3067152500152588,,,,,,,,,,,,,,,,,,,,,,,,,,,,,,,,,,,,103,002,2021_Sep_24_0914,joplin1,2021.2.3,59.83572103779843,
_train_cond.csv,0 1 1 1 1 1 1 1 1 0,8,categoryA,f,,,0,0,0,2,2,11,39,0,,,,,,,,,,,,,,,,,,,j,0,0.27658091695047915,,,,,,,,,,,,,,,,,,,,,,,,,,,,,,,,,,,,103,002,2021_Sep_24_0914,joplin1,2021.2.3,59.83572103779843,
_train_cond.csv,1 1 1 0 0 0 0 1 1 1,6,categoryA,f,,,0,0,0,2,2,12,40,3,,,,,,,,,,,,,,,,,,,f,1,0.3117648339830339,,,,,,,,,,,,,,,,,,,,,,,,,,,,,,,,,,,,103,002,2021_Sep_24_0914,joplin1,2021.2.3,59.83572103779843,
_train_cond.csv,1 0 1 1 1 1 1 1 0 1,8,categoryA,f,,,0,0,0,2,2,13,41,1,,,,,,,,,,,,,,,,,,,f,1,0.47371904202736914,,,,,,,,,,,,,,,,,,,,,,,,,,,,,,,,,,,,103,002,2021_Sep_24_0914,joplin1,2021.2.3,59.83572103779843,
_train_cond.csv,,,,,,,0,0,0,2,,,,,,,,,,,,,,,,,,,,,,,,,,space,2.0133465419057757,,,,,,,,,,,,,,,,,,,,,,,,,,,,,,,,,,103,002,2021_Sep_24_0914,joplin1,2021.2.3,59.83572103779843,
_train_cond.csv,1 1 1 0 0 0 0 1 1 1,6,categoryA,f,,,0,1,1,5,0,0,0,3,,,,,,,,,,,,,,,,,,,f,1,0.6995070839766413,,,,,,,,,,,,,,,,,,,,,,,,,,,,,,,,,,,,103,002,2021_Sep_24_0914,joplin1,2021.2.3,59.83572103779843,
_train_cond.csv,0 0 1 0 0 0 0 1 0 0,2,categoryB,j,,,0,1,1,5,0,1,1,12,,,,,,,,,,,,,,,,,,,j,1,0.3033196658361703,,,,,,,,,,,,,,,,,,,,,,,,,,,,,,,,,,,,103,002,2021_Sep_24_0914,joplin1,2021.2.3,59.83572103779843,
_train_cond.csv,1 1 0 1 0 0 1 0 1 1,6,categoryA,f,,,0,1,1,5,0,2,2,2,,,,,,,,,,,,,,,,,,,f,1,0.36045249993912876,,,,,,,,,,,,,,,,,,,,,,,,,,,,,,,,,,,,103,002,2021_Sep_24_0914,joplin1,2021.2.3,59.83572103779843,
_train_cond.csv,1 1 1 0 1 1 0 1 1 1,8,categoryA,f,,,0,1,1,5,0,3,3,4,,,,,,,,,,,,,,,,,,,f,1,0.3375402500387281,,,,,,,,,,,,,,,,,,,,,,,,,,,,,,,,,,,,103,002,2021_Sep_24_0914,joplin1,2021.2.3,59.83572103779843,
_train_cond.csv,0 0 1 0 1 1 0 1 0 0,4,categoryB,j,,,0,1,1,5,0,4,4,9,,,,,,,,,,,,,,,,,,,j,1,0.329594915965572,,,,,,,,,,,,,,,,,,,,,,,,,,,,,,,,,,,,103,002,2021_Sep_24_0914,joplin1,2021.2.3,59.83572103779843,
_train_cond.csv,0 1 0 0 0 0 0 0 1 0,2,categoryB,j,,,0,1,1,5,0,5,5,8,,,,,,,,,,,,,,,,,,,j,1,0.31470670783892274,,,,,,,,,,,,,,,,,,,,,,,,,,,,,,,,,,,,103,002,2021_Sep_24_0914,joplin1,2021.2.3,59.83572103779843,
_train_cond.csv,1 0 0 0 0 0 0 0 0 1,2,categoryB,j,,,0,1,1,5,0,6,6,7,,,,,,,,,,,,,,,,,,,f,0,0.3015146248508245,,,,,,,,,,,,,,,,,,,,,,,,,,,,,,,,,,,,103,002,2021_Sep_24_0914,joplin1,2021.2.3,59.83572103779843,
_train_cond.csv,0 0 1 1 1 1 1 1 0 0,6,categoryA,f,,,0,1,1,5,0,7,7,6,,,,,,,,,,,,,,,,,,,j,0,0.28765041613951325,,,,,,,,,,,,,,,,,,,,,,,,,,,,,,,,,,,,103,002,2021_Sep_24_0914,joplin1,2021.2.3,59.83572103779843,
_train_cond.csv,1 1 0 0 0 0 0 0 1 1,4,categoryB,j,,,0,1,1,5,0,8,8,13,,,,,,,,,,,,,,,,,,,f,0,0.39484895789064467,,,,,,,,,,,,,,,,,,,,,,,,,,,,,,,,,,,,103,002,2021_Sep_24_0914,joplin1,2021.2.3,59.83572103779843,
_train_cond.csv,0 0 0 1 0 0 1 0 0 0,2,categoryB,j,,,0,1,1,5,0,9,9,11,,,,,,,,,,,,,,,,,,,j,1,0.3535046670585871,,,,,,,,,,,,,,,,,,,,,,,,,,,,,,,,,,,,103,002,2021_Sep_24_0914,joplin1,2021.2.3,59.83572103779843,
_train_cond.csv,0 1 1 1 1 1 1 1 1 0,8,categoryA,f,,,0,1,1,5,0,10,10,0,,,,,,,,,,,,,,,,,,,f,1,0.3374709580093622,,,,,,,,,,,,,,,,,,,,,,,,,,,,,,,,,,,,103,002,2021_Sep_24_0914,joplin1,2021.2.3,59.83572103779843,
_train_cond.csv,0 0 0 1 1 1 1 0 0 0,4,categoryB,j,,,0,1,1,5,0,11,11,10,,,,,,,,,,,,,,,,,,,f,0,0.3146247079130262,,,,,,,,,,,,,,,,,,,,,,,,,,,,,,,,,,,,103,002,2021_Sep_24_0914,joplin1,2021.2.3,59.83572103779843,
_train_cond.csv,1 0 1 1 1 1 1 1 0 1,8,categoryA,f,,,0,1,1,5,0,12,12,1,,,,,,,,,,,,,,,,,,,f,1,0.4605387500487268,,,,,,,,,,,,,,,,,,,,,,,,,,,,,,,,,,,,103,002,2021_Sep_24_0914,joplin1,2021.2.3,59.83572103779843,
_train_cond.csv,1 1 0 1 1 1 1 0 1 1,8,categoryA,f,,,0,1,1,5,0,13,13,5,,,,,,,,,,,,,,,,,,,f,1,0.37001841701567173,,,,,,,,,,,,,,,,,,,,,,,,,,,,,,,,,,,,103,002,2021_Sep_24_0914,joplin1,2021.2.3,59.83572103779843,
_train_cond.csv,1 0 1 1 1 1 1 1 0 1,8,categoryA,f,,,0,1,1,5,1,0,14,1,,,,,,,,,,,,,,,,,,,f,1,0.2728742500767112,,,,,,,,,,,,,,,,,,,,,,,,,,,,,,,,,,,,103,002,2021_Sep_24_0914,joplin1,2021.2.3,59.83572103779843,
_train_cond.csv,0 1 0 0 0 0 0 0 1 0,2,categoryB,j,,,0,1,1,5,1,1,15,8,,,,,,,,,,,,,,,,,,,f,0,0.6377400411292911,,,,,,,,,,,,,,,,,,,,,,,,,,,,,,,,,,,,103,002,2021_Sep_24_0914,joplin1,2021.2.3,59.83572103779843,
_train_cond.csv,1 1 1 0 0 0 0 1 1 1,6,categoryA,f,,,0,1,1,5,1,2,16,3,,,,,,,,,,,,,,,,,,,f,1,0.3387023329269141,,,,,,,,,,,,,,,,,,,,,,,,,,,,,,,,,,,,103,002,2021_Sep_24_0914,joplin1,2021.2.3,59.83572103779843,
_train_cond.csv,0 0 1 1 1 1 1 1 0 0,6,categoryA,f,,,0,1,1,5,1,3,17,6,,,,,,,,,,,,,,,,,,,j,0,0.4504604171961546,,,,,,,,,,,,,,,,,,,,,,,,,,,,,,,,,,,,103,002,2021_Sep_24_0914,joplin1,2021.2.3,59.83572103779843,
_train_cond.csv,0 1 1 1 1 1 1 1 1 0,8,categoryA,f,,,0,1,1,5,1,4,18,0,,,,,,,,,,,,,,,,,,,j,0,0.6317532081156969,,,,,,,,,,,,,,,,,,,,,,,,,,,,,,,,,,,,103,002,2021_Sep_24_0914,joplin1,2021.2.3,59.83572103779843,
_train_cond.csv,0 0 0 1 1 1 1 0 0 0,4,categoryB,j,,,0,1,1,5,1,5,19,10,,,,,,,,,,,,,,,,,,,f,0,0.44596995785832405,,,,,,,,,,,,,,,,,,,,,,,,,,,,,,,,,,,,103,002,2021_Sep_24_0914,joplin1,2021.2.3,59.83572103779843,
_train_cond.csv,0 0 1 0 0 0 0 1 0 0,2,categoryB,j,,,0,1,1,5,1,6,20,12,,,,,,,,,,,,,,,,,,,j,1,0.0028204580303281546,,,,,,,,,,,,,,,,,,,,,,,,,,,,,,,,,,,,103,002,2021_Sep_24_0914,joplin1,2021.2.3,59.83572103779843,
_train_cond.csv,1 1 0 1 1 1 1 0 1 1,8,categoryA,f,,,0,1,1,5,1,7,21,5,,,,,,,,,,,,,,,,,,,f,1,0.3849071250297129,,,,,,,,,,,,,,,,,,,,,,,,,,,,,,,,,,,,103,002,2021_Sep_24_0914,joplin1,2021.2.3,59.83572103779843,
_train_cond.csv,1 1 0 1 0 0 1 0 1 1,6,categoryA,f,,,0,1,1,5,1,8,22,2,,,,,,,,,,,,,,,,,,,f,1,0.2724729999899864,,,,,,,,,,,,,,,,,,,,,,,,,,,,,,,,,,,,103,002,2021_Sep_24_0914,joplin1,2021.2.3,59.83572103779843,
_train_cond.csv,1 0 0 0 0 0 0 0 0 1,2,categoryB,j,,,0,1,1,5,1,9,23,7,,,,,,,,,,,,,,,,,,,f,0,0.3640904580242932,,,,,,,,,,,,,,,,,,,,,,,,,,,,,,,,,,,,103,002,2021_Sep_24_0914,joplin1,2021.2.3,59.83572103779843,
_train_cond.csv,0 0 1 0 1 1 0 1 0 0,4,categoryB,j,,,0,1,1,5,1,10,24,9,,,,,,,,,,,,,,,,,,,j,1,0.4197484580799937,,,,,,,,,,,,,,,,,,,,,,,,,,,,,,,,,,,,103,002,2021_Sep_24_0914,joplin1,2021.2.3,59.83572103779843,
_train_cond.csv,1 1 0 0 0 0 0 0 1 1,4,categoryB,j,,,0,1,1,5,1,11,25,13,,,,,,,,,,,,,,,,,,,f,0,0.40191054181195796,,,,,,,,,,,,,,,,,,,,,,,,,,,,,,,,,,,,103,002,2021_Sep_24_0914,joplin1,2021.2.3,59.83572103779843,
_train_cond.csv,0 0 0 1 0 0 1 0 0 0,2,categoryB,j,,,0,1,1,5,1,12,26,11,,,,,,,,,,,,,,,,,,,j,1,0.5046409161295742,,,,,,,,,,,,,,,,,,,,,,,,,,,,,,,,,,,,103,002,2021_Sep_24_0914,joplin1,2021.2.3,59.83572103779843,
_train_cond.csv,1 1 1 0 1 1 0 1 1 1,8,categoryA,f,,,0,1,1,5,1,13,27,4,,,,,,,,,,,,,,,,,,,f,1,0.33863191585987806,,,,,,,,,,,,,,,,,,,,,,,,,,,,,,,,,,,,103,002,2021_Sep_24_0914,joplin1,2021.2.3,59.83572103779843,
_train_cond.csv,1 1 0 1 1 1 1 0 1 1,8,categoryA,f,,,0,1,1,5,2,0,28,5,,,,,,,,,,,,,,,,,,,f,1,0.2521108330693096,,,,,,,,,,,,,,,,,,,,,,,,,,,,,,,,,,,,103,002,2021_Sep_24_0914,joplin1,2021.2.3,59.83572103779843,
_train_cond.csv,1 0 1 1 1 1 1 1 0 1,8,categoryA,f,,,0,1,1,5,2,1,29,1,,,,,,,,,,,,,,,,,,,f,1,0.3914996248204261,,,,,,,,,,,,,,,,,,,,,,,,,,,,,,,,,,,,103,002,2021_Sep_24_0914,joplin1,2021.2.3,59.83572103779843,
_train_cond.csv,0 1 1 1 1 1 1 1 1 0,8,categoryA,f,,,0,1,1,5,2,2,30,0,,,,,,,,,,,,,,,,,,,f,1,0.43134550005197525,,,,,,,,,,,,,,,,,,,,,,,,,,,,,,,,,,,,103,002,2021_Sep_24_0914,joplin1,2021.2.3,59.83572103779843,
_train_cond.csv,0 0 1 0 0 0 0 1 0 0,2,categoryB,j,,,0,1,1,5,2,3,31,12,,,,,,,,,,,,,,,,,,,f,0,0.5660562498960644,,,,,,,,,,,,,,,,,,,,,,,,,,,,,,,,,,,,103,002,2021_Sep_24_0914,joplin1,2021.2.3,59.83572103779843,
_train_cond.csv,1 1 1 0 1 1 0 1 1 1,8,categoryA,f,,,0,1,1,5,2,4,32,4,,,,,,,,,,,,,,,,,,,f,1,0.53398033301346,,,,,,,,,,,,,,,,,,,,,,,,,,,,,,,,,,,,103,002,2021_Sep_24_0914,joplin1,2021.2.3,59.83572103779843,
_train_cond.csv,0 0 1 0 1 1 0 1 0 0,4,categoryB,j,,,0,1,1,5,2,5,33,9,,,,,,,,,,,,,,,,,,,f,0,0.5906491249334067,,,,,,,,,,,,,,,,,,,,,,,,,,,,,,,,,,,,103,002,2021_Sep_24_0914,joplin1,2021.2.3,59.83572103779843,
_train_cond.csv,0 0 0 1 0 0 1 0 0 0,2,categoryB,j,,,0,1,1,5,2,6,34,11,,,,,,,,,,,,,,,,,,,f,0,0.30942224990576506,,,,,,,,,,,,,,,,,,,,,,,,,,,,,,,,,,,,103,002,2021_Sep_24_0914,joplin1,2021.2.3,59.83572103779843,
_train_cond.csv,1 1 0 0 0 0 0 0 1 1,4,categoryB,j,,,0,1,1,5,2,7,35,13,,,,,,,,,,,,,,,,,,,f,0,0.3040372908581048,,,,,,,,,,,,,,,,,,,,,,,,,,,,,,,,,,,,103,002,2021_Sep_24_0914,joplin1,2021.2.3,59.83572103779843,
_train_cond.csv,0 0 0 1 1 1 1 0 0 0,4,categoryB,j,,,0,1,1,5,2,8,36,10,,,,,,,,,,,,,,,,,,,j,1,0.2909247500356287,,,,,,,,,,,,,,,,,,,,,,,,,,,,,,,,,,,,103,002,2021_Sep_24_0914,joplin1,2021.2.3,59.83572103779843,
_train_cond.csv,1 0 0 0 0 0 0 0 0 1,2,categoryB,j,,,0,1,1,5,2,9,37,7,,,,,,,,,,,,,,,,,,,f,0,0.31009299983270466,,,,,,,,,,,,,,,,,,,,,,,,,,,,,,,,,,,,103,002,2021_Sep_24_0914,joplin1,2021.2.3,59.83572103779843,
_train_cond.csv,1 1 0 1 0 0 1 0 1 1,6,categoryA,f,,,0,1,1,5,2,10,38,2,,,,,,,,,,,,,,,,,,,f,1,0.2638244591653347,,,,,,,,,,,,,,,,,,,,,,,,,,,,,,,,,,,,103,002,2021_Sep_24_0914,joplin1,2021.2.3,59.83572103779843,
_train_cond.csv,1 1 1 0 0 0 0 1 1 1,6,categoryA,f,,,0,1,1,5,2,11,39,3,,,,,,,,,,,,,,,,,,,f,1,0.2918376252055168,,,,,,,,,,,,,,,,,,,,,,,,,,,,,,,,,,,,103,002,2021_Sep_24_0914,joplin1,2021.2.3,59.83572103779843,
_train_cond.csv,0 1 0 0 0 0 0 0 1 0,2,categoryB,j,,,0,1,1,5,2,12,40,8,,,,,,,,,,,,,,,,,,,j,1,0.31977229099720716,,,,,,,,,,,,,,,,,,,,,,,,,,,,,,,,,,,,103,002,2021_Sep_24_0914,joplin1,2021.2.3,59.83572103779843,
_train_cond.csv,0 0 1 1 1 1 1 1 0 0,6,categoryA,f,,,0,1,1,5,2,13,41,6,,,,,,,,,,,,,,,,,,,j,0,0.2646819169167429,,,,,,,,,,,,,,,,,,,,,,,,,,,,,,,,,,,,103,002,2021_Sep_24_0914,joplin1,2021.2.3,59.83572103779843,
_train_cond.csv,,,,,,,0,1,1,5,,,,,,,,,,,,,,,,,,,,,,,,,,space,1.2273289591539651,,,,,,,,,,,,,,,,,,,,,,,,,,,,,,,,,,103,002,2021_Sep_24_0914,joplin1,2021.2.3,59.83572103779843,
_train_cond.csv,0 0 1 0 0 0 0 1 0 0,2,categoryB,j,,,0,2,2,3,0,0,0,12,,,,,,,,,,,,,,,,,,,f,0,0.5060289169196039,,,,,,,,,,,,,,,,,,,,,,,,,,,,,,,,,,,,103,002,2021_Sep_24_0914,joplin1,2021.2.3,59.83572103779843,
_train_cond.csv,0 0 1 1 1 1 1 1 0 0,6,categoryA,f,,,0,2,2,3,0,1,1,6,,,,,,,,,,,,,,,,,,,j,0,0.3000343330204487,,,,,,,,,,,,,,,,,,,,,,,,,,,,,,,,,,,,103,002,2021_Sep_24_0914,joplin1,2021.2.3,59.83572103779843,
_train_cond.csv,0 1 1 1 1 1 1 1 1 0,8,categoryA,f,,,0,2,2,3,0,2,2,0,,,,,,,,,,,,,,,,,,,f,1,0.3266426660120487,,,,,,,,,,,,,,,,,,,,,,,,,,,,,,,,,,,,103,002,2021_Sep_24_0914,joplin1,2021.2.3,59.83572103779843,
_train_cond.csv,0 1 0 0 0 0 0 0 1 0,2,categoryB,j,,,0,2,2,3,0,3,3,8,,,,,,,,,,,,,,,,,,,f,0,0.3920848749112338,,,,,,,,,,,,,,,,,,,,,,,,,,,,,,,,,,,,103,002,2021_Sep_24_0914,joplin1,2021.2.3,59.83572103779843,
_train_cond.csv,0 0 0 1 1 1 1 0 0 0,4,categoryB,j,,,0,2,2,3,0,4,4,10,,,,,,,,,,,,,,,,,,,j,1,0.3113704158458859,,,,,,,,,,,,,,,,,,,,,,,,,,,,,,,,,,,,103,002,2021_Sep_24_0914,joplin1,2021.2.3,59.83572103779843,
_train_cond.csv,1 1 0 0 0 0 0 0 1 1,4,categoryB,j,,,0,2,2,3,0,5,5,13,,,,,,,,,,,,,,,,,,,f,0,0.8657747500110418,,,,,,,,,,,,,,,,,,,,,,,,,,,,,,,,,,,,103,002,2021_Sep_24_0914,joplin1,2021.2.3,59.83572103779843,
_train_cond.csv,1 0 1 1 1 1 1 1 0 1,8,categoryA,f,,,0,2,2,3,0,6,6,1,,,,,,,,,,,,,,,,,,,f,1,0.46148754213936627,,,,,,,,,,,,,,,,,,,,,,,,,,,,,,,,,,,,103,002,2021_Sep_24_0914,joplin1,2021.2.3,59.83572103779843,
_train_cond.csv,1 1 1 0 0 0 0 1 1 1,6,categoryA,f,,,0,2,2,3,0,7,7,3,,,,,,,,,,,,,,,,,,,f,1,0.6088744590524584,,,,,,,,,,,,,,,,,,,,,,,,,,,,,,,,,,,,103,002,2021_Sep_24_0914,joplin1,2021.2.3,59.83572103779843,
_train_cond.csv,1 1 0 1 0 0 1 0 1 1,6,categoryA,f,,,0,2,2,3,0,8,8,2,,,,,,,,,,,,,,,,,,,f,1,0.6318813748657703,,,,,,,,,,,,,,,,,,,,,,,,,,,,,,,,,,,,103,002,2021_Sep_24_0914,joplin1,2021.2.3,59.83572103779843,
_train_cond.csv,0 0 0 1 0 0 1 0 0 0,2,categoryB,j,,,0,2,2,3,0,9,9,11,,,,,,,,,,,,,,,,,,,f,0,0.4453408750705421,,,,,,,,,,,,,,,,,,,,,,,,,,,,,,,,,,,,103,002,2021_Sep_24_0914,joplin1,2021.2.3,59.83572103779843,
_train_cond.csv,1 1 0 1 1 1 1 0 1 1,8,categoryA,f,,,0,2,2,3,0,10,10,5,,,,,,,,,,,,,,,,,,,f,1,0.6904130829498172,,,,,,,,,,,,,,,,,,,,,,,,,,,,,,,,,,,,103,002,2021_Sep_24_0914,joplin1,2021.2.3,59.83572103779843,
_train_cond.csv,0 0 1 0 1 1 0 1 0 0,4,categoryB,j,,,0,2,2,3,0,11,11,9,,,,,,,,,,,,,,,,,,,j,1,0.30209183413535357,,,,,,,,,,,,,,,,,,,,,,,,,,,,,,,,,,,,103,002,2021_Sep_24_0914,joplin1,2021.2.3,59.83572103779843,
_train_cond.csv,1 1 1 0 1 1 0 1 1 1,8,categoryA,f,,,0,2,2,3,0,12,12,4,,,,,,,,,,,,,,,,,,,f,1,0.24815441598184407,,,,,,,,,,,,,,,,,,,,,,,,,,,,,,,,,,,,103,002,2021_Sep_24_0914,joplin1,2021.2.3,59.83572103779843,
_train_cond.csv,1 0 0 0 0 0 0 0 0 1,2,categoryB,j,,,0,2,2,3,0,13,13,7,,,,,,,,,,,,,,,,,,,f,0,0.285425707930699,,,,,,,,,,,,,,,,,,,,,,,,,,,,,,,,,,,,103,002,2021_Sep_24_0914,joplin1,2021.2.3,59.83572103779843,
_train_cond.csv,0 0 1 0 1 1 0 1 0 0,4,categoryB,j,,,0,2,2,3,1,0,14,9,,,,,,,,,,,,,,,,,,,j,1,0.27189941611140966,,,,,,,,,,,,,,,,,,,,,,,,,,,,,,,,,,,,103,002,2021_Sep_24_0914,joplin1,2021.2.3,59.83572103779843,
_train_cond.csv,1 1 0 0 0 0 0 0 1 1,4,categoryB,j,,,0,2,2,3,1,1,15,13,,,,,,,,,,,,,,,,,,,f,0,0.47554875002242625,,,,,,,,,,,,,,,,,,,,,,,,,,,,,,,,,,,,103,002,2021_Sep_24_0914,joplin1,2021.2.3,59.83572103779843,
_train_cond.csv,0 0 0 1 0 0 1 0 0 0,2,categoryB,j,,,0,2,2,3,1,2,16,11,,,,,,,,,,,,,,,,,,,j,1,0.42410654202103615,,,,,,,,,,,,,,,,,,,,,,,,,,,,,,,,,,,,103,002,2021_Sep_24_0914,joplin1,2021.2.3,59.83572103779843,
_train_cond.csv,1 1 0 1 1 1 1 0 1 1,8,categoryA,f,,,0,2,2,3,1,3,17,5,,,,,,,,,,,,,,,,,,,f,1,0.36614229204133153,,,,,,,,,,,,,,,,,,,,,,,,,,,,,,,,,,,,103,002,2021_Sep_24_0914,joplin1,2021.2.3,59.83572103779843,
_train_cond.csv,0 0 1 0 0 0 0 1 0 0,2,categoryB,j,,,0,2,2,3,1,4,18,12,,,,,,,,,,,,,,,,,,,j,1,0.28555662487633526,,,,,,,,,,,,,,,,,,,,,,,,,,,,,,,,,,,,103,002,2021_Sep_24_0914,joplin1,2021.2.3,59.83572103779843,
_train_cond.csv,1 1 0 1 0 0 1 0 1 1,6,categoryA,f,,,0,2,2,3,1,5,19,2,,,,,,,,,,,,,,,,,,,f,1,0.29678929201327264,,,,,,,,,,,,,,,,,,,,,,,,,,,,,,,,,,,,103,002,2021_Sep_24_0914,joplin1,2021.2.3,59.83572103779843,
_train_cond.csv,0 1 0 0 0 0 0 0 1 0,2,categoryB,j,,,0,2,2,3,1,6,20,8,,,,,,,,,,,,,,,,,,,j,1,0.2912651658989489,,,,,,,,,,,,,,,,,,,,,,,,,,,,,,,,,,,,103,002,2021_Sep_24_0914,joplin1,2021.2.3,59.83572103779843,
_train_cond.csv,1 1 1 0 0 0 0 1 1 1,6,categoryA,f,,,0,2,2,3,1,7,21,3,,,,,,,,,,,,,,,,,,,f,1,0.478977041086182,,,,,,,,,,,,,,,,,,,,,,,,,,,,,,,,,,,,103,002,2021_Sep_24_0914,joplin1,2021.2.3,59.83572103779843,
_train_cond.csv,0 1 1 1 1 1 1 1 1 0,8,categoryA,f,,,0,2,2,3,1,8,22,0,,,,,,,,,,,,,,,,,,,j,0,0.3300914999563247,,,,,,,,,,,,,,,,,,,,,,,,,,,,,,,,,,,,103,002,2021_Sep_24_0914,joplin1,2021.2.3,59.83572103779843,
_train_cond.csv,1 0 1 1 1 1 1 1 0 1,8,categoryA,f,,,0,2,2,3,1,9,23,1,,,,,,,,,,,,,,,,,,,f,1,0.24345025001093745,,,,,,,,,,,,,,,,,,,,,,,,,,,,,,,,,,,,103,002,2021_Sep_24_0914,joplin1,2021.2.3,59.83572103779843,
_train_cond.csv,1 0 0 0 0 0 0 0 0 1,2,categoryB,j,,,0,2,2,3,1,10,24,7,,,,,,,,,,,,,,,,,,,f,0,0.35315258288756013,,,,,,,,,,,,,,,,,,,,,,,,,,,,,,,,,,,,103,002,2021_Sep_24_0914,joplin1,2021.2.3,59.83572103779843,
_train_cond.csv,0 0 1 1 1 1 1 1 0 0,6,categoryA,f,,,0,2,2,3,1,11,25,6,,,,,,,,,,,,,,,,,,,j,0,0.3611677910666913,,,,,,,,,,,,,,,,,,,,,,,,,,,,,,,,,,,,103,002,2021_Sep_24_0914,joplin1,2021.2.3,59.83572103779843,
_train_cond.csv,1 1 1 0 1 1 0 1 1 1,8,categoryA,f,,,0,2,2,3,1,12,26,4,,,,,,,,,,,,,,,,,,,f,1,0.2653392080683261,,,,,,,,,,,,,,,,,,,,,,,,,,,,,,,,,,,,103,002,2021_Sep_24_0914,joplin1,2021.2.3,59.83572103779843,
_train_cond.csv,0 0 0 1 1 1 1 0 0 0,4,categoryB,j,,,0,2,2,3,1,13,27,10,,,,,,,,,,,,,,,,,,,f,0,0.2774282079190016,,,,,,,,,,,,,,,,,,,,,,,,,,,,,,,,,,,,103,002,2021_Sep_24_0914,joplin1,2021.2.3,59.83572103779843,
_train_cond.csv,1 1 0 1 1 1 1 0 1 1,8,categoryA,f,,,0,2,2,3,2,0,28,5,,,,,,,,,,,,,,,,,,,f,1,0.3616231658961624,,,,,,,,,,,,,,,,,,,,,,,,,,,,,,,,,,,,103,002,2021_Sep_24_0914,joplin1,2021.2.3,59.83572103779843,
_train_cond.csv,1 0 0 0 0 0 0 0 0 1,2,categoryB,j,,,0,2,2,3,2,1,29,7,,,,,,,,,,,,,,,,,,,f,0,0.3461175002157688,,,,,,,,,,,,,,,,,,,,,,,,,,,,,,,,,,,,103,002,2021_Sep_24_0914,joplin1,2021.2.3,59.83572103779843,
_train_cond.csv,1 1 1 0 0 0 0 1 1 1,6,categoryA,f,,,0,2,2,3,2,2,30,3,,,,,,,,,,,,,,,,,,,f,1,0.4733550841920078,,,,,,,,,,,,,,,,,,,,,,,,,,,,,,,,,,,,103,002,2021_Sep_24_0914,joplin1,2021.2.3,59.83572103779843,
_train_cond.csv,1 1 0 1 0 0 1 0 1 1,6,categoryA,f,,,0,2,2,3,2,3,31,2,,,,,,,,,,,,,,,,,,,f,1,0.35063799982890487,,,,,,,,,,,,,,,,,,,,,,,,,,,,,,,,,,,,103,002,2021_Sep_24_0914,joplin1,2021.2.3,59.83572103779843,
_train_cond.csv,0 0 0 1 1 1 1 0 0 0,4,categoryB,j,,,0,2,2,3,2,4,32,10,,,,,,,,,,,,,,,,,,,f,0,0.39990237494930625,,,,,,,,,,,,,,,,,,,,,,,,,,,,,,,,,,,,103,002,2021_Sep_24_0914,joplin1,2021.2.3,59.83572103779843,
_train_cond.csv,0 0 1 0 1 1 0 1 0 0,4,categoryB,j,,,0,2,2,3,2,5,33,9,,,,,,,,,,,,,,,,,,,j,1,0.6465167091228068,,,,,,,,,,,,,,,,,,,,,,,,,,,,,,,,,,,,103,002,2021_Sep_24_0914,joplin1,2021.2.3,59.83572103779843,
_train_cond.csv,0 0 1 1 1 1 1 1 0 0,6,categoryA,f,,,0,2,2,3,2,6,34,6,,,,,,,,,,,,,,,,,,,j,0,0.7479736669920385,,,,,,,,,,,,,,,,,,,,,,,,,,,,,,,,,,,,103,002,2021_Sep_24_0914,joplin1,2021.2.3,59.83572103779843,
_train_cond.csv,1 0 1 1 1 1 1 1 0 1,8,categoryA,f,,,0,2,2,3,2,7,35,1,,,,,,,,,,,,,,,,,,,f,1,0.6132539170794189,,,,,,,,,,,,,,,,,,,,,,,,,,,,,,,,,,,,103,002,2021_Sep_24_0914,joplin1,2021.2.3,59.83572103779843,
_train_cond.csv,1 1 1 0 1 1 0 1 1 1,8,categoryA,f,,,0,2,2,3,2,8,36,4,,,,,,,,,,,,,,,,,,,f,1,0.5706559170503169,,,,,,,,,,,,,,,,,,,,,,,,,,,,,,,,,,,,103,002,2021_Sep_24_0914,joplin1,2021.2.3,59.83572103779843,
_train_cond.csv,0 0 1 0 0 0 0 1 0 0,2,categoryB,j,,,0,2,2,3,2,9,37,12,,,,,,,,,,,,,,,,,,,f,0,0.37956979195587337,,,,,,,,,,,,,,,,,,,,,,,,,,,,,,,,,,,,103,002,2021_Sep_24_0914,joplin1,2021.2.3,59.83572103779843,
_train_cond.csv,0 0 0 1 0 0 1 0 0 0,2,categoryB,j,,,0,2,2,3,2,10,38,11,,,,,,,,,,,,,,,,,,,j,1,0.290585083886981,,,,,,,,,,,,,,,,,,,,,,,,,,,,,,,,,,,,103,002,2021_Sep_24_0914,joplin1,2021.2.3,59.83572103779843,
_train_cond.csv,1 1 0 0 0 0 0 0 1 1,4,categoryB,j,,,0,2,2,3,2,11,39,13,,,,,,,,,,,,,,,,,,,f,0,0.32595641701482236,,,,,,,,,,,,,,,,,,,,,,,,,,,,,,,,,,,,103,002,2021_Sep_24_0914,joplin1,2021.2.3,59.83572103779843,
_train_cond.csv,0 1 0 0 0 0 0 0 1 0,2,categoryB,j,,,0,2,2,3,2,12,40,8,,,,,,,,,,,,,,,,,,,j,1,0.3927538339048624,,,,,,,,,,,,,,,,,,,,,,,,,,,,,,,,,,,,103,002,2021_Sep_24_0914,joplin1,2021.2.3,59.83572103779843,
_train_cond.csv,0 1 1 1 1 1 1 1 1 0,8,categoryA,f,,,0,2,2,3,2,13,41,0,,,,,,,,,,,,,,,,,,,j,0,0.5037360840942711,,,,,,,,,,,,,,,,,,,,,,,,,,,,,,,,,,,,103,002,2021_Sep_24_0914,joplin1,2021.2.3,59.83572103779843,
_train_cond.csv,,,,,,,0,2,2,3,,,,,,,,,,,,,,,,,,,,,,,,,,space,8.608967417152599,,,,,,,,,,,,,,,,,,,,,,,,,,,,,,,,,,103,002,2021_Sep_24_0914,joplin1,2021.2.3,59.83572103779843,
_train_cond.csv,1 1 0 0 0 0 0 0 1 1,4,categoryB,j,,,0,3,3,6,0,0,0,13,,,,,,,,,,,,,,,,,,,f,0,0.4879112499766052,,,,,,,,,,,,,,,,,,,,,,,,,,,,,,,,,,,,103,002,2021_Sep_24_0914,joplin1,2021.2.3,59.83572103779843,
_train_cond.csv,1 1 1 0 1 1 0 1 1 1,8,categoryA,f,,,0,3,3,6,0,1,1,4,,,,,,,,,,,,,,,,,,,f,1,0.30598979094065726,,,,,,,,,,,,,,,,,,,,,,,,,,,,,,,,,,,,103,002,2021_Sep_24_0914,joplin1,2021.2.3,59.83572103779843,
_train_cond.csv,0 0 0 1 0 0 1 0 0 0,2,categoryB,j,,,0,3,3,6,0,2,2,11,,,,,,,,,,,,,,,,,,,j,1,0.2917701250407845,,,,,,,,,,,,,,,,,,,,,,,,,,,,,,,,,,,,103,002,2021_Sep_24_0914,joplin1,2021.2.3,59.83572103779843,
_train_cond.csv,0 0 1 1 1 1 1 1 0 0,6,categoryA,f,,,0,3,3,6,0,3,3,6,,,,,,,,,,,,,,,,,,,j,0,0.3035890001337975,,,,,,,,,,,,,,,,,,,,,,,,,,,,,,,,,,,,103,002,2021_Sep_24_0914,joplin1,2021.2.3,59.83572103779843,
_train_cond.csv,0 1 1 1 1 1 1 1 1 0,8,categoryA,f,,,0,3,3,6,0,4,4,0,,,,,,,,,,,,,,,,,,,j,0,0.2814962500706315,,,,,,,,,,,,,,,,,,,,,,,,,,,,,,,,,,,,103,002,2021_Sep_24_0914,joplin1,2021.2.3,59.83572103779843,
_train_cond.csv,1 0 1 1 1 1 1 1 0 1,8,categoryA,f,,,0,3,3,6,0,5,5,1,,,,,,,,,,,,,,,,,,,f,1,0.3093818330671638,,,,,,,,,,,,,,,,,,,,,,,,,,,,,,,,,,,,103,002,2021_Sep_24_0914,joplin1,2021.2.3,59.83572103779843,
_train_cond.csv,1 1 0 1 0 0 1 0 1 1,6,categoryA,f,,,0,3,3,6,0,6,6,2,,,,,,,,,,,,,,,,,,,f,1,0.31983116711489856,,,,,,,,,,,,,,,,,,,,,,,,,,,,,,,,,,,,103,002,2021_Sep_24_0914,joplin1,2021.2.3,59.83572103779843,
_train_cond.csv,0 0 0 1 1 1 1 0 0 0,4,categoryB,j,,,0,3,3,6,0,7,7,10,,,,,,,,,,,,,,,,,,,f,0,0.3131948751397431,,,,,,,,,,,,,,,,,,,,,,,,,,,,,,,,,,,,103,002,2021_Sep_24_0914,joplin1,2021.2.3,59.83572103779843,
_train_cond.csv,1 0 0 0 0 0 0 0 0 1,2,categoryB,j,,,0,3,3,6,0,8,8,7,,,,,,,,,,,,,,,,,,,f,0,0.3314034999348223,,,,,,,,,,,,,,,,,,,,,,,,,,,,,,,,,,,,103,002,2021_Sep_24_0914,joplin1,2021.2.3,59.83572103779843,
_train_cond.csv,0 0 1 0 0 0 0 1 0 0,2,categoryB,j,,,0,3,3,6,0,9,9,12,,,,,,,,,,,,,,,,,,,f,0,0.31790024996735156,,,,,,,,,,,,,,,,,,,,,,,,,,,,,,,,,,,,103,002,2021_Sep_24_0914,joplin1,2021.2.3,59.83572103779843,
_train_cond.csv,0 1 0 0 0 0 0 0 1 0,2,categoryB,j,,,0,3,3,6,0,10,10,8,,,,,,,,,,,,,,,,,,,j,1,0.28074241685681045,,,,,,,,,,,,,,,,,,,,,,,,,,,,,,,,,,,,103,002,2021_Sep_24_0914,joplin1,2021.2.3,59.83572103779843,
_train_cond.csv,1 1 1 0 0 0 0 1 1 1,6,categoryA,f,,,0,3,3,6,0,11,11,3,,,,,,,,,,,,,,,,,,,f,1,0.30741258384659886,,,,,,,,,,,,,,,,,,,,,,,,,,,,,,,,,,,,103,002,2021_Sep_24_0914,joplin1,2021.2.3,59.83572103779843,
_train_cond.csv,1 1 0 1 1 1 1 0 1 1,8,categoryA,f,,,0,3,3,6,0,12,12,5,,,,,,,,,,,,,,,,,,,f,1,0.28647479182109237,,,,,,,,,,,,,,,,,,,,,,,,,,,,,,,,,,,,103,002,2021_Sep_24_0914,joplin1,2021.2.3,59.83572103779843,
_train_cond.csv,0 0 1 0 1 1 0 1 0 0,4,categoryB,j,,,0,3,3,6,0,13,13,9,,,,,,,,,,,,,,,,,,,f,0,0.7607671248260885,,,,,,,,,,,,,,,,,,,,,,,,,,,,,,,,,,,,103,002,2021_Sep_24_0914,joplin1,2021.2.3,59.83572103779843,
_train_cond.csv,1 1 1 0 0 0 0 1 1 1,6,categoryA,f,,,0,3,3,6,1,0,14,3,,,,,,,,,,,,,,,,,,,f,1,0.41634674998931587,,,,,,,,,,,,,,,,,,,,,,,,,,,,,,,,,,,,103,002,2021_Sep_24_0914,joplin1,2021.2.3,59.83572103779843,
_train_cond.csv,1 1 1 0 1 1 0 1 1 1,8,categoryA,f,,,0,3,3,6,1,1,15,4,,,,,,,,,,,,,,,,,,,f,1,0.30262970784679055,,,,,,,,,,,,,,,,,,,,,,,,,,,,,,,,,,,,103,002,2021_Sep_24_0914,joplin1,2021.2.3,59.83572103779843,
_train_cond.csv,1 1 0 0 0 0 0 0 1 1,4,categoryB,j,,,0,3,3,6,1,2,16,13,,,,,,,,,,,,,,,,,,,f,0,0.2993440830614418,,,,,,,,,,,,,,,,,,,,,,,,,,,,,,,,,,,,103,002,2021_Sep_24_0914,joplin1,2021.2.3,59.83572103779843,
_train_cond.csv,0 0 1 0 0 0 0 1 0 0,2,categoryB,j,,,0,3,3,6,1,3,17,12,,,,,,,,,,,,,,,,,,,j,1,0.3097196249291301,,,,,,,,,,,,,,,,,,,,,,,,,,,,,,,,,,,,103,002,2021_Sep_24_0914,joplin1,2021.2.3,59.83572103779843,
_train_cond.csv,0 0 0 1 0 0 1 0 0 0,2,categoryB,j,,,0,3,3,6,1,4,18,11,,,,,,,,,,,,,,,,,,,j,1,0.3285724581219256,,,,,,,,,,,,,,,,,,,,,,,,,,,,,,,,,,,,103,002,2021_Sep_24_0914,joplin1,2021.2.3,59.83572103779843,
_train_cond.csv,0 1 1 1 1 1 1 1 1 0,8,categoryA,f,,,0,3,3,6,1,5,19,0,,,,,,,,,,,,,,,,,,,f,1,0.31447758292779326,,,,,,,,,,,,,,,,,,,,,,,,,,,,,,,,,,,,103,002,2021_Sep_24_0914,joplin1,2021.2.3,59.83572103779843,
_train_cond.csv,0 0 1 0 1 1 0 1 0 0,4,categoryB,j,,,0,3,3,6,1,6,20,9,,,,,,,,,,,,,,,,,,,j,1,0.29263345804065466,,,,,,,,,,,,,,,,,,,,,,,,,,,,,,,,,,,,103,002,2021_Sep_24_0914,joplin1,2021.2.3,59.83572103779843,
_train_cond.csv,0 0 1 1 1 1 1 1 0 0,6,categoryA,f,,,0,3,3,6,1,7,21,6,,,,,,,,,,,,,,,,,,,f,1,0.26277720811776817,,,,,,,,,,,,,,,,,,,,,,,,,,,,,,,,,,,,103,002,2021_Sep_24_0914,joplin1,2021.2.3,59.83572103779843,
_train_cond.csv,1 1 0 1 1 1 1 0 1 1,8,categoryA,f,,,0,3,3,6,1,8,22,5,,,,,,,,,,,,,,,,,,,f,1,0.2987956248689443,,,,,,,,,,,,,,,,,,,,,,,,,,,,,,,,,,,,103,002,2021_Sep_24_0914,joplin1,2021.2.3,59.83572103779843,
_train_cond.csv,1 0 1 1 1 1 1 1 0 1,8,categoryA,f,,,0,3,3,6,1,9,23,1,,,,,,,,,,,,,,,,,,,f,1,0.16693337494507432,,,,,,,,,,,,,,,,,,,,,,,,,,,,,,,,,,,,103,002,2021_Sep_24_0914,joplin1,2021.2.3,59.83572103779843,
_train_cond.csv,1 1 0 1 0 0 1 0 1 1,6,categoryA,f,,,0,3,3,6,1,10,24,2,,,,,,,,,,,,,,,,,,,f,1,0.27079441607929766,,,,,,,,,,,,,,,,,,,,,,,,,,,,,,,,,,,,103,002,2021_Sep_24_0914,joplin1,2021.2.3,59.83572103779843,
_train_cond.csv,0 0 0 1 1 1 1 0 0 0,4,categoryB,j,,,0,3,3,6,1,11,25,10,,,,,,,,,,,,,,,,,,,f,0,0.35450066602788866,,,,,,,,,,,,,,,,,,,,,,,,,,,,,,,,,,,,103,002,2021_Sep_24_0914,joplin1,2021.2.3,59.83572103779843,
_train_cond.csv,0 1 0 0 0 0 0 0 1 0,2,categoryB,j,,,0,3,3,6,1,12,26,8,,,,,,,,,,,,,,,,,,,j,1,0.322510875063017,,,,,,,,,,,,,,,,,,,,,,,,,,,,,,,,,,,,103,002,2021_Sep_24_0914,joplin1,2021.2.3,59.83572103779843,
_train_cond.csv,1 0 0 0 0 0 0 0 0 1,2,categoryB,j,,,0,3,3,6,1,13,27,7,,,,,,,,,,,,,,,,,,,f,0,0.4364139169920236,,,,,,,,,,,,,,,,,,,,,,,,,,,,,,,,,,,,103,002,2021_Sep_24_0914,joplin1,2021.2.3,59.83572103779843,
_train_cond.csv,1 0 0 0 0 0 0 0 0 1,2,categoryB,j,,,0,3,3,6,2,0,28,7,,,,,,,,,,,,,,,,,,,j,1,0.24866299983114004,,,,,,,,,,,,,,,,,,,,,,,,,,,,,,,,,,,,103,002,2021_Sep_24_0914,joplin1,2021.2.3,59.83572103779843,
_train_cond.csv,0 1 1 1 1 1 1 1 1 0,8,categoryA,f,,,0,3,3,6,2,1,29,0,,,,,,,,,,,,,,,,,,,f,1,0.32608145801350474,,,,,,,,,,,,,,,,,,,,,,,,,,,,,,,,,,,,103,002,2021_Sep_24_0914,joplin1,2021.2.3,59.83572103779843,
_train_cond.csv,0 0 1 0 0 0 0 1 0 0,2,categoryB,j,,,0,3,3,6,2,2,30,12,,,,,,,,,,,,,,,,,,,j,1,0.35132774990051985,,,,,,,,,,,,,,,,,,,,,,,,,,,,,,,,,,,,103,002,2021_Sep_24_0914,joplin1,2021.2.3,59.83572103779843,
_train_cond.csv,0 1 0 0 0 0 0 0 1 0,2,categoryB,j,,,0,3,3,6,2,3,31,8,,,,,,,,,,,,,,,,,,,j,1,0.31171908392570913,,,,,,,,,,,,,,,,,,,,,,,,,,,,,,,,,,,,103,002,2021_Sep_24_0914,joplin1,2021.2.3,59.83572103779843,
_train_cond.csv,1 1 1 0 1 1 0 1 1 1,8,categoryA,f,,,0,3,3,6,2,4,32,4,,,,,,,,,,,,,,,,,,,f,1,0.33827270893380046,,,,,,,,,,,,,,,,,,,,,,,,,,,,,,,,,,,,103,002,2021_Sep_24_0914,joplin1,2021.2.3,59.83572103779843,
_train_cond.csv,1 1 0 0 0 0 0 0 1 1,4,categoryB,j,,,0,3,3,6,2,5,33,13,,,,,,,,,,,,,,,,,,,j,1,0.3249625419266522,,,,,,,,,,,,,,,,,,,,,,,,,,,,,,,,,,,,103,002,2021_Sep_24_0914,joplin1,2021.2.3,59.83572103779843,
_train_cond.csv,1 0 1 1 1 1 1 1 0 1,8,categoryA,f,,,0,3,3,6,2,6,34,1,,,,,,,,,,,,,,,,,,,f,1,0.3808909170329571,,,,,,,,,,,,,,,,,,,,,,,,,,,,,,,,,,,,103,002,2021_Sep_24_0914,joplin1,2021.2.3,59.83572103779843,
_train_cond.csv,0 0 0 1 1 1 1 0 0 0,4,categoryB,j,,,0,3,3,6,2,7,35,10,,,,,,,,,,,,,,,,,,,j,1,0.4532041661441326,,,,,,,,,,,,,,,,,,,,,,,,,,,,,,,,,,,,103,002,2021_Sep_24_0914,joplin1,2021.2.3,59.83572103779843,
_train_cond.csv,1 1 0 1 1 1 1 0 1 1,8,categoryA,f,,,0,3,3,6,2,8,36,5,,,,,,,,,,,,,,,,,,,f,1,0.5483428749721497,,,,,,,,,,,,,,,,,,,,,,,,,,,,,,,,,,,,103,002,2021_Sep_24_0914,joplin1,2021.2.3,59.83572103779843,
_train_cond.csv,0 0 1 1 1 1 1 1 0 0,6,categoryA,f,,,0,3,3,6,2,9,37,6,,,,,,,,,,,,,,,,,,,f,1,0.22554516606032848,,,,,,,,,,,,,,,,,,,,,,,,,,,,,,,,,,,,103,002,2021_Sep_24_0914,joplin1,2021.2.3,59.83572103779843,
_train_cond.csv,1 1 0 1 0 0 1 0 1 1,6,categoryA,f,,,0,3,3,6,2,10,38,2,,,,,,,,,,,,,,,,,,,f,1,0.39149641594849527,,,,,,,,,,,,,,,,,,,,,,,,,,,,,,,,,,,,103,002,2021_Sep_24_0914,joplin1,2021.2.3,59.83572103779843,
_train_cond.csv,0 0 1 0 1 1 0 1 0 0,4,categoryB,j,,,0,3,3,6,2,11,39,9,,,,,,,,,,,,,,,,,,,j,1,0.23073025001212955,,,,,,,,,,,,,,,,,,,,,,,,,,,,,,,,,,,,103,002,2021_Sep_24_0914,joplin1,2021.2.3,59.83572103779843,
_train_cond.csv,1 1 1 0 0 0 0 1 1 1,6,categoryA,f,,,0,3,3,6,2,12,40,3,,,,,,,,,,,,,,,,,,,j,0,0.2759779579937458,,,,,,,,,,,,,,,,,,,,,,,,,,,,,,,,,,,,103,002,2021_Sep_24_0914,joplin1,2021.2.3,59.83572103779843,
_train_cond.csv,0 0 0 1 0 0 1 0 0 0,2,categoryB,j,,,0,3,3,6,2,13,41,11,,,,,,,,,,,,,,,,,,,f,0,0.3996022909414023,,,,,,,,,,,,,,,,,,,,,,,,,,,,,,,,,,,,103,002,2021_Sep_24_0914,joplin1,2021.2.3,59.83572103779843,
_train_cond.csv,,,,,,,0,3,3,6,,,,,,,,,,,,,,,,,,,,,,,,,,space,1.1331092498730868,,,,,,,,,,,,,,,,,,,,,,,,,,,,,,,,,,103,002,2021_Sep_24_0914,joplin1,2021.2.3,59.83572103779843,
_train_cond.csv,1 1 1 0 0 0 0 1 1 1,6,categoryA,f,,,0,4,4,4,0,0,0,3,,,,,,,,,,,,,,,,,,,j,0,0.3193283749278635,,,,,,,,,,,,,,,,,,,,,,,,,,,,,,,,,,,,103,002,2021_Sep_24_0914,joplin1,2021.2.3,59.83572103779843,
_train_cond.csv,0 0 1 0 1 1 0 1 0 0,4,categoryB,j,,,0,4,4,4,0,1,1,9,,,,,,,,,,,,,,,,,,,j,1,0.5046911670360714,,,,,,,,,,,,,,,,,,,,,,,,,,,,,,,,,,,,103,002,2021_Sep_24_0914,joplin1,2021.2.3,59.83572103779843,
_train_cond.csv,0 0 1 0 0 0 0 1 0 0,2,categoryB,j,,,0,4,4,4,0,2,2,12,,,,,,,,,,,,,,,,,,,j,1,0.4588280420284718,,,,,,,,,,,,,,,,,,,,,,,,,,,,,,,,,,,,103,002,2021_Sep_24_0914,joplin1,2021.2.3,59.83572103779843,
_train_cond.csv,1 0 0 0 0 0 0 0 0 1,2,categoryB,j,,,0,4,4,4,0,3,3,7,,,,,,,,,,,,,,,,,,,j,1,0.41515287500806153,,,,,,,,,,,,,,,,,,,,,,,,,,,,,,,,,,,,103,002,2021_Sep_24_0914,joplin1,2021.2.3,59.83572103779843,
_train_cond.csv,0 0 0 1 1 1 1 0 0 0,4,categoryB,j,,,0,4,4,4,0,4,4,10,,,,,,,,,,,,,,,,,,,f,0,0.22941379202529788,,,,,,,,,,,,,,,,,,,,,,,,,,,,,,,,,,,,103,002,2021_Sep_24_0914,joplin1,2021.2.3,59.83572103779843,
_train_cond.csv,1 1 1 0 1 1 0 1 1 1,8,categoryA,f,,,0,4,4,4,0,5,5,4,,,,,,,,,,,,,,,,,,,f,1,0.5479512079618871,,,,,,,,,,,,,,,,,,,,,,,,,,,,,,,,,,,,103,002,2021_Sep_24_0914,joplin1,2021.2.3,59.83572103779843,
_train_cond.csv,1 1 0 1 1 1 1 0 1 1,8,categoryA,f,,,0,4,4,4,0,6,6,5,,,,,,,,,,,,,,,,,,,f,1,0.2609570419881493,,,,,,,,,,,,,,,,,,,,,,,,,,,,,,,,,,,,103,002,2021_Sep_24_0914,joplin1,2021.2.3,59.83572103779843,
_train_cond.csv,0 0 1 1 1 1 1 1 0 0,6,categoryA,f,,,0,4,4,4,0,7,7,6,,,,,,,,,,,,,,,,,,,j,0,0.6255345838144422,,,,,,,,,,,,,,,,,,,,,,,,,,,,,,,,,,,,103,002,2021_Sep_24_0914,joplin1,2021.2.3,59.83572103779843,
_train_cond.csv,0 0 0 1 0 0 1 0 0 0,2,categoryB,j,,,0,4,4,4,0,8,8,11,,,,,,,,,,,,,,,,,,,j,1,0.30212191701866686,,,,,,,,,,,,,,,,,,,,,,,,,,,,,,,,,,,,103,002,2021_Sep_24_0914,joplin1,2021.2.3,59.83572103779843,
_train_cond.csv,1 0 1 1 1 1 1 1 0 1,8,categoryA,f,,,0,4,4,4,0,9,9,1,,,,,,,,,,,,,,,,,,,f,1,0.44107295805588365,,,,,,,,,,,,,,,,,,,,,,,,,,,,,,,,,,,,103,002,2021_Sep_24_0914,joplin1,2021.2.3,59.83572103779843,
_train_cond.csv,0 1 1 1 1 1 1 1 1 0,8,categoryA,f,,,0,4,4,4,0,10,10,0,,,,,,,,,,,,,,,,,,,f,1,0.8946899999864399,,,,,,,,,,,,,,,,,,,,,,,,,,,,,,,,,,,,103,002,2021_Sep_24_0914,joplin1,2021.2.3,59.83572103779843,
_train_cond.csv,0 1 0 0 0 0 0 0 1 0,2,categoryB,j,,,0,4,4,4,0,11,11,8,,,,,,,,,,,,,,,,,,,f,0,0.7373800419736654,,,,,,,,,,,,,,,,,,,,,,,,,,,,,,,,,,,,103,002,2021_Sep_24_0914,joplin1,2021.2.3,59.83572103779843,
_train_cond.csv,1 1 0 0 0 0 0 0 1 1,4,categoryB,j,,,0,4,4,4,0,12,12,13,,,,,,,,,,,,,,,,,,,f,0,0.787543292157352,,,,,,,,,,,,,,,,,,,,,,,,,,,,,,,,,,,,103,002,2021_Sep_24_0914,joplin1,2021.2.3,59.83572103779843,
_train_cond.csv,1 1 0 1 0 0 1 0 1 1,6,categoryA,f,,,0,4,4,4,0,13,13,2,,,,,,,,,,,,,,,,,,,f,1,0.5139389589894563,,,,,,,,,,,,,,,,,,,,,,,,,,,,,,,,,,,,103,002,2021_Sep_24_0914,joplin1,2021.2.3,59.83572103779843,
_train_cond.csv,0 0 1 0 0 0 0 1 0 0,2,categoryB,j,,,0,4,4,4,1,0,14,12,,,,,,,,,,,,,,,,,,,j,1,0.347772124921903,,,,,,,,,,,,,,,,,,,,,,,,,,,,,,,,,,,,103,002,2021_Sep_24_0914,joplin1,2021.2.3,59.83572103779843,
_train_cond.csv,1 1 0 1 0 0 1 0 1 1,6,categoryA,f,,,0,4,4,4,1,1,15,2,,,,,,,,,,,,,,,,,,,f,1,0.4209028750192374,,,,,,,,,,,,,,,,,,,,,,,,,,,,,,,,,,,,103,002,2021_Sep_24_0914,joplin1,2021.2.3,59.83572103779843,
_train_cond.csv,1 1 0 1 1 1 1 0 1 1,8,categoryA,f,,,0,4,4,4,1,2,16,5,,,,,,,,,,,,,,,,,,,f,1,0.2898500831797719,,,,,,,,,,,,,,,,,,,,,,,,,,,,,,,,,,,,103,002,2021_Sep_24_0914,joplin1,2021.2.3,59.83572103779843,
_train_cond.csv,0 0 1 0 1 1 0 1 0 0,4,categoryB,j,,,0,4,4,4,1,3,17,9,,,,,,,,,,,,,,,,,,,j,1,0.30213395808823407,,,,,,,,,,,,,,,,,,,,,,,,,,,,,,,,,,,,103,002,2021_Sep_24_0914,joplin1,2021.2.3,59.83572103779843,
_train_cond.csv,0 0 0 1 1 1 1 0 0 0,4,categoryB,j,,,0,4,4,4,1,4,18,10,,,,,,,,,,,,,,,,,,,f,0,0.43283820897340775,,,,,,,,,,,,,,,,,,,,,,,,,,,,,,,,,,,,103,002,2021_Sep_24_0914,joplin1,2021.2.3,59.83572103779843,
_train_cond.csv,1 0 1 1 1 1 1 1 0 1,8,categoryA,f,,,0,4,4,4,1,5,19,1,,,,,,,,,,,,,,,,,,,f,1,0.288111416855827,,,,,,,,,,,,,,,,,,,,,,,,,,,,,,,,,,,,103,002,2021_Sep_24_0914,joplin1,2021.2.3,59.83572103779843,
_train_cond.csv,1 1 1 0 1 1 0 1 1 1,8,categoryA,f,,,0,4,4,4,1,6,20,4,,,,,,,,,,,,,,,,,,,f,1,0.48219266603700817,,,,,,,,,,,,,,,,,,,,,,,,,,,,,,,,,,,,103,002,2021_Sep_24_0914,joplin1,2021.2.3,59.83572103779843,
_train_cond.csv,0 1 1 1 1 1 1 1 1 0,8,categoryA,f,,,0,4,4,4,1,7,21,0,,,,,,,,,,,,,,,,,,,f,1,0.5978927079122514,,,,,,,,,,,,,,,,,,,,,,,,,,,,,,,,,,,,103,002,2021_Sep_24_0914,joplin1,2021.2.3,59.83572103779843,
_train_cond.csv,0 1 0 0 0 0 0 0 1 0,2,categoryB,j,,,0,4,4,4,1,8,22,8,,,,,,,,,,,,,,,,,,,j,1,0.2533967911731452,,,,,,,,,,,,,,,,,,,,,,,,,,,,,,,,,,,,103,002,2021_Sep_24_0914,joplin1,2021.2.3,59.83572103779843,
_train_cond.csv,1 1 1 0 0 0 0 1 1 1,6,categoryA,f,,,0,4,4,4,1,9,23,3,,,,,,,,,,,,,,,,,,,f,1,0.4255592080298811,,,,,,,,,,,,,,,,,,,,,,,,,,,,,,,,,,,,103,002,2021_Sep_24_0914,joplin1,2021.2.3,59.83572103779843,
_train_cond.csv,1 1 0 0 0 0 0 0 1 1,4,categoryB,j,,,0,4,4,4,1,10,24,13,,,,,,,,,,,,,,,,,,,j,1,0.28685129107907414,,,,,,,,,,,,,,,,,,,,,,,,,,,,,,,,,,,,103,002,2021_Sep_24_0914,joplin1,2021.2.3,59.83572103779843,
_train_cond.csv,0 0 0 1 0 0 1 0 0 0,2,categoryB,j,,,0,4,4,4,1,11,25,11,,,,,,,,,,,,,,,,,,,f,0,1.0178304167930037,,,,,,,,,,,,,,,,,,,,,,,,,,,,,,,,,,,,103,002,2021_Sep_24_0914,joplin1,2021.2.3,59.83572103779843,
_train_cond.csv,0 0 1 1 1 1 1 1 0 0,6,categoryA,f,,,0,4,4,4,1,12,26,6,,,,,,,,,,,,,,,,,,,f,1,0.34336445806548,,,,,,,,,,,,,,,,,,,,,,,,,,,,,,,,,,,,103,002,2021_Sep_24_0914,joplin1,2021.2.3,59.83572103779843,
_train_cond.csv,1 0 0 0 0 0 0 0 0 1,2,categoryB,j,,,0,4,4,4,1,13,27,7,,,,,,,,,,,,,,,,,,,j,1,0.567795833107084,,,,,,,,,,,,,,,,,,,,,,,,,,,,,,,,,,,,103,002,2021_Sep_24_0914,joplin1,2021.2.3,59.83572103779843,
_train_cond.csv,0 0 0 1 1 1 1 0 0 0,4,categoryB,j,,,0,4,4,4,2,0,28,10,,,,,,,,,,,,,,,,,,,f,0,0.3681812910363078,,,,,,,,,,,,,,,,,,,,,,,,,,,,,,,,,,,,103,002,2021_Sep_24_0914,joplin1,2021.2.3,59.83572103779843,
_train_cond.csv,0 0 0 1 0 0 1 0 0 0,2,categoryB,j,,,0,4,4,4,2,1,29,11,,,,,,,,,,,,,,,,,,,j,1,0.30418291687965393,,,,,,,,,,,,,,,,,,,,,,,,,,,,,,,,,,,,103,002,2021_Sep_24_0914,joplin1,2021.2.3,59.83572103779843,
_train_cond.csv,1 1 1 0 0 0 0 1 1 1,6,categoryA,f,,,0,4,4,4,2,2,30,3,,,,,,,,,,,,,,,,,,,j,0,0.28142879204824567,,,,,,,,,,,,,,,,,,,,,,,,,,,,,,,,,,,,103,002,2021_Sep_24_0914,joplin1,2021.2.3,59.83572103779843,
_train_cond.csv,0 0 1 0 0 0 0 1 0 0,2,categoryB,j,,,0,4,4,4,2,3,31,12,,,,,,,,,,,,,,,,,,,j,1,0.7494733340572566,,,,,,,,,,,,,,,,,,,,,,,,,,,,,,,,,,,,103,002,2021_Sep_24_0914,joplin1,2021.2.3,59.83572103779843,
_train_cond.csv,1 1 0 1 0 0 1 0 1 1,6,categoryA,f,,,0,4,4,4,2,4,32,2,,,,,,,,,,,,,,,,,,,f,1,0.4226443748921156,,,,,,,,,,,,,,,,,,,,,,,,,,,,,,,,,,,,103,002,2021_Sep_24_0914,joplin1,2021.2.3,59.83572103779843,
_train_cond.csv,0 0 1 0 1 1 0 1 0 0,4,categoryB,j,,,0,4,4,4,2,5,33,9,,,,,,,,,,,,,,,,,,,j,1,0.7228613330516964,,,,,,,,,,,,,,,,,,,,,,,,,,,,,,,,,,,,103,002,2021_Sep_24_0914,joplin1,2021.2.3,59.83572103779843,
_train_cond.csv,0 1 1 1 1 1 1 1 1 0,8,categoryA,f,,,0,4,4,4,2,6,34,0,,,,,,,,,,,,,,,,,,,f,1,0.3727309580426663,,,,,,,,,,,,,,,,,,,,,,,,,,,,,,,,,,,,103,002,2021_Sep_24_0914,joplin1,2021.2.3,59.83572103779843,
_train_cond.csv,1 1 1 0 1 1 0 1 1 1,8,categoryA,f,,,0,4,4,4,2,7,35,4,,,,,,,,,,,,,,,,,,,f,1,0.844601082848385,,,,,,,,,,,,,,,,,,,,,,,,,,,,,,,,,,,,103,002,2021_Sep_24_0914,joplin1,2021.2.3,59.83572103779843,
_train_cond.csv,1 0 0 0 0 0 0 0 0 1,2,categoryB,j,,,0,4,4,4,2,8,36,7,,,,,,,,,,,,,,,,,,,f,0,0.47420425014570355,,,,,,,,,,,,,,,,,,,,,,,,,,,,,,,,,,,,103,002,2021_Sep_24_0914,joplin1,2021.2.3,59.83572103779843,
_train_cond.csv,1 1 0 1 1 1 1 0 1 1,8,categoryA,f,,,0,4,4,4,2,9,37,5,,,,,,,,,,,,,,,,,,,f,1,0.4943765001371503,,,,,,,,,,,,,,,,,,,,,,,,,,,,,,,,,,,,103,002,2021_Sep_24_0914,joplin1,2021.2.3,59.83572103779843,
_train_cond.csv,1 1 0 0 0 0 0 0 1 1,4,categoryB,j,,,0,4,4,4,2,10,38,13,,,,,,,,,,,,,,,,,,,j,1,0.32086475007236004,,,,,,,,,,,,,,,,,,,,,,,,,,,,,,,,,,,,103,002,2021_Sep_24_0914,joplin1,2021.2.3,59.83572103779843,
_train_cond.csv,0 1 0 0 0 0 0 0 1 0,2,categoryB,j,,,0,4,4,4,2,11,39,8,,,,,,,,,,,,,,,,,,,j,1,0.5301150409504771,,,,,,,,,,,,,,,,,,,,,,,,,,,,,,,,,,,,103,002,2021_Sep_24_0914,joplin1,2021.2.3,59.83572103779843,
_train_cond.csv,0 0 1 1 1 1 1 1 0 0,6,categoryA,f,,,0,4,4,4,2,12,40,6,,,,,,,,,,,,,,,,,,,f,1,0.460195624968037,,,,,,,,,,,,,,,,,,,,,,,,,,,,,,,,,,,,103,002,2021_Sep_24_0914,joplin1,2021.2.3,59.83572103779843,
_train_cond.csv,1 0 1 1 1 1 1 1 0 1,8,categoryA,f,,,0,4,4,4,2,13,41,1,,,,,,,,,,,,,,,,,,,f,1,0.31157045788131654,,,,,,,,,,,,,,,,,,,,,,,,,,,,,,,,,,,,103,002,2021_Sep_24_0914,joplin1,2021.2.3,59.83572103779843,
_train_cond.csv,,,,,,,0,4,4,4,,,,,,,,,,,,,,,,,,,,,,,,,,space,7.0980937499552965,,,,,,,,,,,,,,,,,,,,,,,,,,,,,,,,,,103,002,2021_Sep_24_0914,joplin1,2021.2.3,59.83572103779843,
_train_cond.csv,0 0 1 0 1 1 0 1 0 0,4,categoryB,j,,,0,5,5,1,0,0,0,9,,,,,,,,,,,,,,,,,,,j,1,0.3414498749189079,,,,,,,,,,,,,,,,,,,,,,,,,,,,,,,,,,,,103,002,2021_Sep_24_0914,joplin1,2021.2.3,59.83572103779843,
_train_cond.csv,1 0 0 0 0 0 0 0 0 1,2,categoryB,j,,,0,5,5,1,0,1,1,7,,,,,,,,,,,,,,,,,,,j,1,0.2708754159975797,,,,,,,,,,,,,,,,,,,,,,,,,,,,,,,,,,,,103,002,2021_Sep_24_0914,joplin1,2021.2.3,59.83572103779843,
_train_cond.csv,1 1 0 1 1 1 1 0 1 1,8,categoryA,f,,,0,5,5,1,0,2,2,5,,,,,,,,,,,,,,,,,,,f,1,0.2434077498037368,,,,,,,,,,,,,,,,,,,,,,,,,,,,,,,,,,,,103,002,2021_Sep_24_0914,joplin1,2021.2.3,59.83572103779843,
_train_cond.csv,1 1 1 0 0 0 0 1 1 1,6,categoryA,f,,,0,5,5,1,0,3,3,3,,,,,,,,,,,,,,,,,,,j,0,0.27195095899514854,,,,,,,,,,,,,,,,,,,,,,,,,,,,,,,,,,,,103,002,2021_Sep_24_0914,joplin1,2021.2.3,59.83572103779843,
_train_cond.csv,0 0 1 1 1 1 1 1 0 0,6,categoryA,f,,,0,5,5,1,0,4,4,6,,,,,,,,,,,,,,,,,,,f,1,0.2751601249910891,,,,,,,,,,,,,,,,,,,,,,,,,,,,,,,,,,,,103,002,2021_Sep_24_0914,joplin1,2021.2.3,59.83572103779843,
_train_cond.csv,0 1 0 0 0 0 0 0 1 0,2,categoryB,j,,,0,5,5,1,0,5,5,8,,,,,,,,,,,,,,,,,,,j,1,0.43841804191470146,,,,,,,,,,,,,,,,,,,,,,,,,,,,,,,,,,,,103,002,2021_Sep_24_0914,joplin1,2021.2.3,59.83572103779843,
_train_cond.csv,1 0 1 1 1 1 1 1 0 1,8,categoryA,f,,,0,5,5,1,0,6,6,1,,,,,,,,,,,,,,,,,,,f,1,0.3157523749396205,,,,,,,,,,,,,,,,,,,,,,,,,,,,,,,,,,,,103,002,2021_Sep_24_0914,joplin1,2021.2.3,59.83572103779843,
_train_cond.csv,0 1 1 1 1 1 1 1 1 0,8,categoryA,f,,,0,5,5,1,0,7,7,0,,,,,,,,,,,,,,,,,,,f,1,0.36474466719664633,,,,,,,,,,,,,,,,,,,,,,,,,,,,,,,,,,,,103,002,2021_Sep_24_0914,joplin1,2021.2.3,59.83572103779843,
_train_cond.csv,0 0 1 0 0 0 0 1 0 0,2,categoryB,j,,,0,5,5,1,0,8,8,12,,,,,,,,,,,,,,,,,,,j,1,0.2706942919176072,,,,,,,,,,,,,,,,,,,,,,,,,,,,,,,,,,,,103,002,2021_Sep_24_0914,joplin1,2021.2.3,59.83572103779843,
_train_cond.csv,1 1 0 0 0 0 0 0 1 1,4,categoryB,j,,,0,5,5,1,0,9,9,13,,,,,,,,,,,,,,,,,,,j,1,0.5455324589274824,,,,,,,,,,,,,,,,,,,,,,,,,,,,,,,,,,,,103,002,2021_Sep_24_0914,joplin1,2021.2.3,59.83572103779843,
_train_cond.csv,1 1 1 0 1 1 0 1 1 1,8,categoryA,f,,,0,5,5,1,0,10,10,4,,,,,,,,,,,,,,,,,,,j,0,0.3362472499720752,,,,,,,,,,,,,,,,,,,,,,,,,,,,,,,,,,,,103,002,2021_Sep_24_0914,joplin1,2021.2.3,59.83572103779843,
_train_cond.csv,0 0 0 1 1 1 1 0 0 0,4,categoryB,j,,,0,5,5,1,0,11,11,10,,,,,,,,,,,,,,,,,,,f,0,0.3088238330092281,,,,,,,,,,,,,,,,,,,,,,,,,,,,,,,,,,,,103,002,2021_Sep_24_0914,joplin1,2021.2.3,59.83572103779843,
_train_cond.csv,0 0 0 1 0 0 1 0 0 0,2,categoryB,j,,,0,5,5,1,0,12,12,11,,,,,,,,,,,,,,,,,,,j,1,0.7194920422043651,,,,,,,,,,,,,,,,,,,,,,,,,,,,,,,,,,,,103,002,2021_Sep_24_0914,joplin1,2021.2.3,59.83572103779843,
_train_cond.csv,1 1 0 1 0 0 1 0 1 1,6,categoryA,f,,,0,5,5,1,0,13,13,2,,,,,,,,,,,,,,,,,,,f,1,0.3369444580748677,,,,,,,,,,,,,,,,,,,,,,,,,,,,,,,,,,,,103,002,2021_Sep_24_0914,joplin1,2021.2.3,59.83572103779843,
_train_cond.csv,0 1 0 0 0 0 0 0 1 0,2,categoryB,j,,,0,5,5,1,1,0,14,8,,,,,,,,,,,,,,,,,,,j,1,0.31266104197129607,,,,,,,,,,,,,,,,,,,,,,,,,,,,,,,,,,,,103,002,2021_Sep_24_0914,joplin1,2021.2.3,59.83572103779843,
_train_cond.csv,0 0 1 0 1 1 0 1 0 0,4,categoryB,j,,,0,5,5,1,1,1,15,9,,,,,,,,,,,,,,,,,,,j,1,0.1546993749216199,,,,,,,,,,,,,,,,,,,,,,,,,,,,,,,,,,,,103,002,2021_Sep_24_0914,joplin1,2021.2.3,59.83572103779843,
_train_cond.csv,0 0 0 1 1 1 1 0 0 0,4,categoryB,j,,,0,5,5,1,1,2,16,10,,,,,,,,,,,,,,,,,,,j,1,0.7315037918742746,,,,,,,,,,,,,,,,,,,,,,,,,,,,,,,,,,,,103,002,2021_Sep_24_0914,joplin1,2021.2.3,59.83572103779843,
_train_cond.csv,1 0 0 0 0 0 0 0 0 1,2,categoryB,j,,,0,5,5,1,1,3,17,7,,,,,,,,,,,,,,,,,,,j,1,0.43707008310593665,,,,,,,,,,,,,,,,,,,,,,,,,,,,,,,,,,,,103,002,2021_Sep_24_0914,joplin1,2021.2.3,59.83572103779843,
_train_cond.csv,1 1 1 0 1 1 0 1 1 1,8,categoryA,f,,,0,5,5,1,1,4,18,4,,,,,,,,,,,,,,,,,,,f,1,0.48990858416073024,,,,,,,,,,,,,,,,,,,,,,,,,,,,,,,,,,,,103,002,2021_Sep_24_0914,joplin1,2021.2.3,59.83572103779843,
_train_cond.csv,1 1 0 1 0 0 1 0 1 1,6,categoryA,f,,,0,5,5,1,1,5,19,2,,,,,,,,,,,,,,,,,,,f,1,0.4774410829413682,,,,,,,,,,,,,,,,,,,,,,,,,,,,,,,,,,,,103,002,2021_Sep_24_0914,joplin1,2021.2.3,59.83572103779843,
_train_cond.csv,0 0 1 0 0 0 0 1 0 0,2,categoryB,j,,,0,5,5,1,1,6,20,12,,,,,,,,,,,,,,,,,,,j,1,0.17821845808066428,,,,,,,,,,,,,,,,,,,,,,,,,,,,,,,,,,,,103,002,2021_Sep_24_0914,joplin1,2021.2.3,59.83572103779843,
_train_cond.csv,0 0 1 1 1 1 1 1 0 0,6,categoryA,f,,,0,5,5,1,1,7,21,6,,,,,,,,,,,,,,,,,,,f,1,0.232132124947384,,,,,,,,,,,,,,,,,,,,,,,,,,,,,,,,,,,,103,002,2021_Sep_24_0914,joplin1,2021.2.3,59.83572103779843,
_train_cond.csv,1 1 0 1 1 1 1 0 1 1,8,categoryA,f,,,0,5,5,1,1,8,22,5,,,,,,,,,,,,,,,,,,,j,0,0.39876466686837375,,,,,,,,,,,,,,,,,,,,,,,,,,,,,,,,,,,,103,002,2021_Sep_24_0914,joplin1,2021.2.3,59.83572103779843,
_train_cond.csv,1 1 0 0 0 0 0 0 1 1,4,categoryB,j,,,0,5,5,1,1,9,23,13,,,,,,,,,,,,,,,,,,,j,1,0.32434387505054474,,,,,,,,,,,,,,,,,,,,,,,,,,,,,,,,,,,,103,002,2021_Sep_24_0914,joplin1,2021.2.3,59.83572103779843,
_train_cond.csv,0 1 1 1 1 1 1 1 1 0,8,categoryA,f,,,0,5,5,1,1,10,24,0,,,,,,,,,,,,,,,,,,,f,1,0.4301106249913573,,,,,,,,,,,,,,,,,,,,,,,,,,,,,,,,,,,,103,002,2021_Sep_24_0914,joplin1,2021.2.3,59.83572103779843,
_train_cond.csv,0 0 0 1 0 0 1 0 0 0,2,categoryB,j,,,0,5,5,1,1,11,25,11,,,,,,,,,,,,,,,,,,,j,1,0.3315732090268284,,,,,,,,,,,,,,,,,,,,,,,,,,,,,,,,,,,,103,002,2021_Sep_24_0914,joplin1,2021.2.3,59.83572103779843,
_train_cond.csv,1 1 1 0 0 0 0 1 1 1,6,categoryA,f,,,0,5,5,1,1,12,26,3,,,,,,,,,,,,,,,,,,,j,0,0.24451629095710814,,,,,,,,,,,,,,,,,,,,,,,,,,,,,,,,,,,,103,002,2021_Sep_24_0914,joplin1,2021.2.3,59.83572103779843,
_train_cond.csv,1 0 1 1 1 1 1 1 0 1,8,categoryA,f,,,0,5,5,1,1,13,27,1,,,,,,,,,,,,,,,,,,,f,1,0.45815683412365615,,,,,,,,,,,,,,,,,,,,,,,,,,,,,,,,,,,,103,002,2021_Sep_24_0914,joplin1,2021.2.3,59.83572103779843,
_train_cond.csv,0 1 1 1 1 1 1 1 1 0,8,categoryA,f,,,0,5,5,1,2,0,28,0,,,,,,,,,,,,,,,,,,,j,0,0.309998249867931,,,,,,,,,,,,,,,,,,,,,,,,,,,,,,,,,,,,103,002,2021_Sep_24_0914,joplin1,2021.2.3,59.83572103779843,
_train_cond.csv,0 1 0 0 0 0 0 0 1 0,2,categoryB,j,,,0,5,5,1,2,1,29,8,,,,,,,,,,,,,,,,,,,j,1,0.24843029119074345,,,,,,,,,,,,,,,,,,,,,,,,,,,,,,,,,,,,103,002,2021_Sep_24_0914,joplin1,2021.2.3,59.83572103779843,
_train_cond.csv,1 1 1 0 0 0 0 1 1 1,6,categoryA,f,,,0,5,5,1,2,2,30,3,,,,,,,,,,,,,,,,,,,j,0,0.45307641685940325,,,,,,,,,,,,,,,,,,,,,,,,,,,,,,,,,,,,103,002,2021_Sep_24_0914,joplin1,2021.2.3,59.83572103779843,
_train_cond.csv,1 0 1 1 1 1 1 1 0 1,8,categoryA,f,,,0,5,5,1,2,3,31,1,,,,,,,,,,,,,,,,,,,f,1,0.29686054098419845,,,,,,,,,,,,,,,,,,,,,,,,,,,,,,,,,,,,103,002,2021_Sep_24_0914,joplin1,2021.2.3,59.83572103779843,
_train_cond.csv,0 0 0 1 0 0 1 0 0 0,2,categoryB,j,,,0,5,5,1,2,4,32,11,,,,,,,,,,,,,,,,,,,j,1,0.3075352080632001,,,,,,,,,,,,,,,,,,,,,,,,,,,,,,,,,,,,103,002,2021_Sep_24_0914,joplin1,2021.2.3,59.83572103779843,
_train_cond.csv,1 1 0 0 0 0 0 0 1 1,4,categoryB,j,,,0,5,5,1,2,5,33,13,,,,,,,,,,,,,,,,,,,j,1,0.2451952078845352,,,,,,,,,,,,,,,,,,,,,,,,,,,,,,,,,,,,103,002,2021_Sep_24_0914,joplin1,2021.2.3,59.83572103779843,
_train_cond.csv,0 0 1 0 0 0 0 1 0 0,2,categoryB,j,,,0,5,5,1,2,6,34,12,,,,,,,,,,,,,,,,,,,j,1,0.3144710420165211,,,,,,,,,,,,,,,,,,,,,,,,,,,,,,,,,,,,103,002,2021_Sep_24_0914,joplin1,2021.2.3,59.83572103779843,
_train_cond.csv,1 1 0 1 1 1 1 0 1 1,8,categoryA,f,,,0,5,5,1,2,7,35,5,,,,,,,,,,,,,,,,,,,f,1,0.5734371659345925,,,,,,,,,,,,,,,,,,,,,,,,,,,,,,,,,,,,103,002,2021_Sep_24_0914,joplin1,2021.2.3,59.83572103779843,
_train_cond.csv,1 0 0 0 0 0 0 0 0 1,2,categoryB,j,,,0,5,5,1,2,8,36,7,,,,,,,,,,,,,,,,,,,j,1,0.3408820410259068,,,,,,,,,,,,,,,,,,,,,,,,,,,,,,,,,,,,103,002,2021_Sep_24_0914,joplin1,2021.2.3,59.83572103779843,
_train_cond.csv,1 1 1 0 1 1 0 1 1 1,8,categoryA,f,,,0,5,5,1,2,9,37,4,,,,,,,,,,,,,,,,,,,j,0,0.36564129195176065,,,,,,,,,,,,,,,,,,,,,,,,,,,,,,,,,,,,103,002,2021_Sep_24_0914,joplin1,2021.2.3,59.83572103779843,
_train_cond.csv,0 0 1 1 1 1 1 1 0 0,6,categoryA,f,,,0,5,5,1,2,10,38,6,,,,,,,,,,,,,,,,,,,f,1,0.4956005001440644,,,,,,,,,,,,,,,,,,,,,,,,,,,,,,,,,,,,103,002,2021_Sep_24_0914,joplin1,2021.2.3,59.83572103779843,
_train_cond.csv,1 1 0 1 0 0 1 0 1 1,6,categoryA,f,,,0,5,5,1,2,11,39,2,,,,,,,,,,,,,,,,,,,j,0,0.6974587079603225,,,,,,,,,,,,,,,,,,,,,,,,,,,,,,,,,,,,103,002,2021_Sep_24_0914,joplin1,2021.2.3,59.83572103779843,
_train_cond.csv,0 0 1 0 1 1 0 1 0 0,4,categoryB,j,,,0,5,5,1,2,12,40,9,,,,,,,,,,,,,,,,,,,j,1,0.29925337503664196,,,,,,,,,,,,,,,,,,,,,,,,,,,,,,,,,,,,103,002,2021_Sep_24_0914,joplin1,2021.2.3,59.83572103779843,
_train_cond.csv,0 0 0 1 1 1 1 0 0 0,4,categoryB,j,,,0,5,5,1,2,13,41,10,,,,,,,,,,,,,,,,,,,f,0,0.3507650839164853,,,,,,,,,,,,,,,,,,,,,,,,,,,,,,,,,,,,103,002,2021_Sep_24_0914,joplin1,2021.2.3,59.83572103779843,
_train_cond.csv,,,,,,,0,5,5,1,,,,,,,,,,,,,,,,,,,,,,,,,,space,7.750435583060607,,,,,,,,,,,,,,,,,,,,,,,,,,,,,,,,,,103,002,2021_Sep_24_0914,joplin1,2021.2.3,59.83572103779843,
_train_cond.csv,1 1 0 0 0 0 0 0 1 1,4,categoryB,j,,,0,6,6,7,0,0,0,13,,,,,,,,,,,,,,,,,,,j,1,0.31149133294820786,,,,,,,,,,,,,,,,,,,,,,,,,,,,,,,,,,,,103,002,2021_Sep_24_0914,joplin1,2021.2.3,59.83572103779843,
_train_cond.csv,1 1 1 0 0 0 0 1 1 1,6,categoryA,f,,,0,6,6,7,0,1,1,3,,,,,,,,,,,,,,,,,,,j,0,0.29734516609460115,,,,,,,,,,,,,,,,,,,,,,,,,,,,,,,,,,,,103,002,2021_Sep_24_0914,joplin1,2021.2.3,59.83572103779843,
_train_cond.csv,0 1 1 1 1 1 1 1 1 0,8,categoryA,f,,,0,6,6,7,0,2,2,0,,,,,,,,,,,,,,,,,,,f,1,0.4770477081183344,,,,,,,,,,,,,,,,,,,,,,,,,,,,,,,,,,,,103,002,2021_Sep_24_0914,joplin1,2021.2.3,59.83572103779843,
_train_cond.csv,1 1 1 0 1 1 0 1 1 1,8,categoryA,f,,,0,6,6,7,0,3,3,4,,,,,,,,,,,,,,,,,,,j,0,0.46417450020089746,,,,,,,,,,,,,,,,,,,,,,,,,,,,,,,,,,,,103,002,2021_Sep_24_0914,joplin1,2021.2.3,59.83572103779843,
_train_cond.csv,1 1 0 1 0 0 1 0 1 1,6,categoryA,f,,,0,6,6,7,0,4,4,2,,,,,,,,,,,,,,,,,,,f,1,0.4114645828958601,,,,,,,,,,,,,,,,,,,,,,,,,,,,,,,,,,,,103,002,2021_Sep_24_0914,joplin1,2021.2.3,59.83572103779843,
_train_cond.csv,1 1 0 1 1 1 1 0 1 1,8,categoryA,f,,,0,6,6,7,0,5,5,5,,,,,,,,,,,,,,,,,,,f,1,0.3461767078842968,,,,,,,,,,,,,,,,,,,,,,,,,,,,,,,,,,,,103,002,2021_Sep_24_0914,joplin1,2021.2.3,59.83572103779843,
_train_cond.csv,0 0 0 1 0 0 1 0 0 0,2,categoryB,j,,,0,6,6,7,0,6,6,11,,,,,,,,,,,,,,,,,,,j,1,0.267290584044531,,,,,,,,,,,,,,,,,,,,,,,,,,,,,,,,,,,,103,002,2021_Sep_24_0914,joplin1,2021.2.3,59.83572103779843,
_train_cond.csv,0 0 1 0 1 1 0 1 0 0,4,categoryB,j,,,0,6,6,7,0,7,7,9,,,,,,,,,,,,,,,,,,,j,1,0.551338457968086,,,,,,,,,,,,,,,,,,,,,,,,,,,,,,,,,,,,103,002,2021_Sep_24_0914,joplin1,2021.2.3,59.83572103779843,
_train_cond.csv,0 0 1 1 1 1 1 1 0 0,6,categoryA,f,,,0,6,6,7,0,8,8,6,,,,,,,,,,,,,,,,,,,f,1,0.30402308399789035,,,,,,,,,,,,,,,,,,,,,,,,,,,,,,,,,,,,103,002,2021_Sep_24_0914,joplin1,2021.2.3,59.83572103779843,
_train_cond.csv,0 1 0 0 0 0 0 0 1 0,2,categoryB,j,,,0,6,6,7,0,9,9,8,,,,,,,,,,,,,,,,,,,j,1,0.634290250018239,,,,,,,,,,,,,,,,,,,,,,,,,,,,,,,,,,,,103,002,2021_Sep_24_0914,joplin1,2021.2.3,59.83572103779843,
_train_cond.csv,1 0 1 1 1 1 1 1 0 1,8,categoryA,f,,,0,6,6,7,0,10,10,1,,,,,,,,,,,,,,,,,,,f,1,0.8313530839513987,,,,,,,,,,,,,,,,,,,,,,,,,,,,,,,,,,,,103,002,2021_Sep_24_0914,joplin1,2021.2.3,59.83572103779843,
_train_cond.csv,0 0 1 0 0 0 0 1 0 0,2,categoryB,j,,,0,6,6,7,0,11,11,12,,,,,,,,,,,,,,,,,,,j,1,0.37231241702102125,,,,,,,,,,,,,,,,,,,,,,,,,,,,,,,,,,,,103,002,2021_Sep_24_0914,joplin1,2021.2.3,59.83572103779843,
_train_cond.csv,0 0 0 1 1 1 1 0 0 0,4,categoryB,j,,,0,6,6,7,0,12,12,10,,,,,,,,,,,,,,,,,,,f,0,0.8756186249665916,,,,,,,,,,,,,,,,,,,,,,,,,,,,,,,,,,,,103,002,2021_Sep_24_0914,joplin1,2021.2.3,59.83572103779843,
_train_cond.csv,1 0 0 0 0 0 0 0 0 1,2,categoryB,j,,,0,6,6,7,0,13,13,7,,,,,,,,,,,,,,,,,,,j,1,0.9115321252029389,,,,,,,,,,,,,,,,,,,,,,,,,,,,,,,,,,,,103,002,2021_Sep_24_0914,joplin1,2021.2.3,59.83572103779843,
_train_cond.csv,0 1 1 1 1 1 1 1 1 0,8,categoryA,f,,,0,6,6,7,1,0,14,0,,,,,,,,,,,,,,,,,,,f,1,0.2899738328997046,,,,,,,,,,,,,,,,,,,,,,,,,,,,,,,,,,,,103,002,2021_Sep_24_0914,joplin1,2021.2.3,59.83572103779843,
_train_cond.csv,1 0 0 0 0 0 0 0 0 1,2,categoryB,j,,,0,6,6,7,1,1,15,7,,,,,,,,,,,,,,,,,,,j,1,0.9168216658290476,,,,,,,,,,,,,,,,,,,,,,,,,,,,,,,,,,,,103,002,2021_Sep_24_0914,joplin1,2021.2.3,59.83572103779843,
_train_cond.csv,0 0 1 0 1 1 0 1 0 0,4,categoryB,j,,,0,6,6,7,1,2,16,9,,,,,,,,,,,,,,,,,,,j,1,0.46257716603577137,,,,,,,,,,,,,,,,,,,,,,,,,,,,,,,,,,,,103,002,2021_Sep_24_0914,joplin1,2021.2.3,59.83572103779843,
_train_cond.csv,1 1 0 1 0 0 1 0 1 1,6,categoryA,f,,,0,6,6,7,1,3,17,2,,,,,,,,,,,,,,,,,,,f,1,0.4200199160259217,,,,,,,,,,,,,,,,,,,,,,,,,,,,,,,,,,,,103,002,2021_Sep_24_0914,joplin1,2021.2.3,59.83572103779843,
_train_cond.csv,0 1 0 0 0 0 0 0 1 0,2,categoryB,j,,,0,6,6,7,1,4,18,8,,,,,,,,,,,,,,,,,,,j,1,0.6168337089475244,,,,,,,,,,,,,,,,,,,,,,,,,,,,,,,,,,,,103,002,2021_Sep_24_0914,joplin1,2021.2.3,59.83572103779843,
_train_cond.csv,0 0 1 1 1 1 1 1 0 0,6,categoryA,f,,,0,6,6,7,1,5,19,6,,,,,,,,,,,,,,,,,,,j,0,0.5900891250930727,,,,,,,,,,,,,,,,,,,,,,,,,,,,,,,,,,,,103,002,2021_Sep_24_0914,joplin1,2021.2.3,59.83572103779843,
_train_cond.csv,0 0 1 0 0 0 0 1 0 0,2,categoryB,j,,,0,6,6,7,1,6,20,12,,,,,,,,,,,,,,,,,,,j,1,0.6694746669381857,,,,,,,,,,,,,,,,,,,,,,,,,,,,,,,,,,,,103,002,2021_Sep_24_0914,joplin1,2021.2.3,59.83572103779843,
_train_cond.csv,1 1 0 1 1 1 1 0 1 1,8,categoryA,f,,,0,6,6,7,1,7,21,5,,,,,,,,,,,,,,,,,,,f,1,0.40152420895174146,,,,,,,,,,,,,,,,,,,,,,,,,,,,,,,,,,,,103,002,2021_Sep_24_0914,joplin1,2021.2.3,59.83572103779843,
_train_cond.csv,1 1 1 0 0 0 0 1 1 1,6,categoryA,f,,,0,6,6,7,1,8,22,3,,,,,,,,,,,,,,,,,,,j,0,0.6155717910733074,,,,,,,,,,,,,,,,,,,,,,,,,,,,,,,,,,,,103,002,2021_Sep_24_0914,joplin1,2021.2.3,59.83572103779843,
_train_cond.csv,1 0 1 1 1 1 1 1 0 1,8,categoryA,f,,,0,6,6,7,1,9,23,1,,,,,,,,,,,,,,,,,,,f,1,1.0132691671606153,,,,,,,,,,,,,,,,,,,,,,,,,,,,,,,,,,,,103,002,2021_Sep_24_0914,joplin1,2021.2.3,59.83572103779843,
_train_cond.csv,0 0 0 1 0 0 1 0 0 0,2,categoryB,j,,,0,6,6,7,1,10,24,11,,,,,,,,,,,,,,,,,,,j,1,0.7065644159447402,,,,,,,,,,,,,,,,,,,,,,,,,,,,,,,,,,,,103,002,2021_Sep_24_0914,joplin1,2021.2.3,59.83572103779843,
_train_cond.csv,1 1 1 0 1 1 0 1 1 1,8,categoryA,f,,,0,6,6,7,1,11,25,4,,,,,,,,,,,,,,,,,,,j,0,0.7101684170775115,,,,,,,,,,,,,,,,,,,,,,,,,,,,,,,,,,,,103,002,2021_Sep_24_0914,joplin1,2021.2.3,59.83572103779843,
_train_cond.csv,0 0 0 1 1 1 1 0 0 0,4,categoryB,j,,,0,6,6,7,1,12,26,10,,,,,,,,,,,,,,,,,,,j,1,0.6170911251101643,,,,,,,,,,,,,,,,,,,,,,,,,,,,,,,,,,,,103,002,2021_Sep_24_0914,joplin1,2021.2.3,59.83572103779843,
_train_cond.csv,1 1 0 0 0 0 0 0 1 1,4,categoryB,j,,,0,6,6,7,1,13,27,13,,,,,,,,,,,,,,,,,,,j,1,0.7186763328500092,,,,,,,,,,,,,,,,,,,,,,,,,,,,,,,,,,,,103,002,2021_Sep_24_0914,joplin1,2021.2.3,59.83572103779843,
_train_cond.csv,0 1 0 0 0 0 0 0 1 0,2,categoryB,j,,,0,6,6,7,2,0,28,8,,,,,,,,,,,,,,,,,,,j,1,0.3680578749626875,,,,,,,,,,,,,,,,,,,,,,,,,,,,,,,,,,,,103,002,2021_Sep_24_0914,joplin1,2021.2.3,59.83572103779843,
_train_cond.csv,1 1 0 1 1 1 1 0 1 1,8,categoryA,f,,,0,6,6,7,2,1,29,5,,,,,,,,,,,,,,,,,,,f,1,0.6081784998532385,,,,,,,,,,,,,,,,,,,,,,,,,,,,,,,,,,,,103,002,2021_Sep_24_0914,joplin1,2021.2.3,59.83572103779843,
_train_cond.csv,0 0 0 1 1 1 1 0 0 0,4,categoryB,j,,,0,6,6,7,2,2,30,10,,,,,,,,,,,,,,,,,,,f,0,0.22159883403219283,,,,,,,,,,,,,,,,,,,,,,,,,,,,,,,,,,,,103,002,2021_Sep_24_0914,joplin1,2021.2.3,59.83572103779843,
_train_cond.csv,1 0 1 1 1 1 1 1 0 1,8,categoryA,f,,,0,6,6,7,2,3,31,1,,,,,,,,,,,,,,,,,,,f,1,0.603638167027384,,,,,,,,,,,,,,,,,,,,,,,,,,,,,,,,,,,,103,002,2021_Sep_24_0914,joplin1,2021.2.3,59.83572103779843,
_train_cond.csv,0 0 0 1 0 0 1 0 0 0,2,categoryB,j,,,0,6,6,7,2,4,32,11,,,,,,,,,,,,,,,,,,,j,1,0.4330735830590129,,,,,,,,,,,,,,,,,,,,,,,,,,,,,,,,,,,,103,002,2021_Sep_24_0914,joplin1,2021.2.3,59.83572103779843,
_train_cond.csv,1 1 1 0 1 1 0 1 1 1,8,categoryA,f,,,0,6,6,7,2,5,33,4,,,,,,,,,,,,,,,,,,,f,1,0.7992052501067519,,,,,,,,,,,,,,,,,,,,,,,,,,,,,,,,,,,,103,002,2021_Sep_24_0914,joplin1,2021.2.3,59.83572103779843,
_train_cond.csv,0 0 1 0 0 0 0 1 0 0,2,categoryB,j,,,0,6,6,7,2,6,34,12,,,,,,,,,,,,,,,,,,,j,1,0.3660958749242127,,,,,,,,,,,,,,,,,,,,,,,,,,,,,,,,,,,,103,002,2021_Sep_24_0914,joplin1,2021.2.3,59.83572103779843,
_train_cond.csv,0 0 1 1 1 1 1 1 0 0,6,categoryA,f,,,0,6,6,7,2,7,35,6,,,,,,,,,,,,,,,,,,,j,0,0.6133385838475078,,,,,,,,,,,,,,,,,,,,,,,,,,,,,,,,,,,,103,002,2021_Sep_24_0914,joplin1,2021.2.3,59.83572103779843,
_train_cond.csv,1 1 0 0 0 0 0 0 1 1,4,categoryB,j,,,0,6,6,7,2,8,36,13,,,,,,,,,,,,,,,,,,,j,1,0.36444791685789824,,,,,,,,,,,,,,,,,,,,,,,,,,,,,,,,,,,,103,002,2021_Sep_24_0914,joplin1,2021.2.3,59.83572103779843,
_train_cond.csv,1 1 1 0 0 0 0 1 1 1,6,categoryA,f,,,0,6,6,7,2,9,37,3,,,,,,,,,,,,,,,,,,,f,1,0.7652352498844266,,,,,,,,,,,,,,,,,,,,,,,,,,,,,,,,,,,,103,002,2021_Sep_24_0914,joplin1,2021.2.3,59.83572103779843,
_train_cond.csv,1 1 0 1 0 0 1 0 1 1,6,categoryA,f,,,0,6,6,7,2,10,38,2,,,,,,,,,,,,,,,,,,,j,0,0.3653912078589201,,,,,,,,,,,,,,,,,,,,,,,,,,,,,,,,,,,,103,002,2021_Sep_24_0914,joplin1,2021.2.3,59.83572103779843,
_train_cond.csv,0 1 1 1 1 1 1 1 1 0,8,categoryA,f,,,0,6,6,7,2,11,39,0,,,,,,,,,,,,,,,,,,,f,1,0.4453307499643415,,,,,,,,,,,,,,,,,,,,,,,,,,,,,,,,,,,,103,002,2021_Sep_24_0914,joplin1,2021.2.3,59.83572103779843,
_train_cond.csv,0 0 1 0 1 1 0 1 0 0,4,categoryB,j,,,0,6,6,7,2,12,40,9,,,,,,,,,,,,,,,,,,,j,1,0.6100584578234702,,,,,,,,,,,,,,,,,,,,,,,,,,,,,,,,,,,,103,002,2021_Sep_24_0914,joplin1,2021.2.3,59.83572103779843,
_train_cond.csv,1 0 0 0 0 0 0 0 0 1,2,categoryB,j,,,0,6,6,7,2,13,41,7,,,,,,,,,,,,,,,,,,,j,1,0.33677312498912215,,,,,,,,,,,,,,,,,,,,,,,,,,,,,,,,,,,,103,002,2021_Sep_24_0914,joplin1,2021.2.3,59.83572103779843,
_train_cond.csv,,,,,,,0,6,6,7,,,,,,,,,,,,,,,,,,,,,,,,,,space,6.753090374870226,,,,,,,,,,,,,,,,,,,,,,,,,,,,,,,,,,103,002,2021_Sep_24_0914,joplin1,2021.2.3,59.83572103779843,
_train_cond.csv,0 0 1 1 1 1 1 1 0 0,6,categoryA,f,,,0,7,7,0,0,0,0,6,,,,,,,,,,,,,,,,,,,f,1,0.280841541942209,,,,,,,,,,,,,,,,,,,,,,,,,,,,,,,,,,,,103,002,2021_Sep_24_0914,joplin1,2021.2.3,59.83572103779843,
_train_cond.csv,1 0 1 1 1 1 1 1 0 1,8,categoryA,f,,,0,7,7,0,0,1,1,1,,,,,,,,,,,,,,,,,,,j,0,0.3009136659093201,,,,,,,,,,,,,,,,,,,,,,,,,,,,,,,,,,,,103,002,2021_Sep_24_0914,joplin1,2021.2.3,59.83572103779843,
_train_cond.csv,1 1 1 0 1 1 0 1 1 1,8,categoryA,f,,,0,7,7,0,0,2,2,4,,,,,,,,,,,,,,,,,,,f,1,0.4315323329064995,,,,,,,,,,,,,,,,,,,,,,,,,,,,,,,,,,,,103,002,2021_Sep_24_0914,joplin1,2021.2.3,59.83572103779843,
_train_cond.csv,0 0 1 0 1 1 0 1 0 0,4,categoryB,j,,,0,7,7,0,0,3,3,9,,,,,,,,,,,,,,,,,,,j,1,0.6205443751532584,,,,,,,,,,,,,,,,,,,,,,,,,,,,,,,,,,,,103,002,2021_Sep_24_0914,joplin1,2021.2.3,59.83572103779843,
_train_cond.csv,0 0 0 1 1 1 1 0 0 0,4,categoryB,j,,,0,7,7,0,0,4,4,10,,,,,,,,,,,,,,,,,,,f,0,0.23432591697201133,,,,,,,,,,,,,,,,,,,,,,,,,,,,,,,,,,,,103,002,2021_Sep_24_0914,joplin1,2021.2.3,59.83572103779843,
_train_cond.csv,1 0 0 0 0 0 0 0 0 1,2,categoryB,j,,,0,7,7,0,0,5,5,7,,,,,,,,,,,,,,,,,,,j,1,0.3287519591394812,,,,,,,,,,,,,,,,,,,,,,,,,,,,,,,,,,,,103,002,2021_Sep_24_0914,joplin1,2021.2.3,59.83572103779843,
_train_cond.csv,1 1 0 1 1 1 1 0 1 1,8,categoryA,f,,,0,7,7,0,0,6,6,5,,,,,,,,,,,,,,,,,,,f,1,0.9615064170211554,,,,,,,,,,,,,,,,,,,,,,,,,,,,,,,,,,,,103,002,2021_Sep_24_0914,joplin1,2021.2.3,59.83572103779843,
_train_cond.csv,0 1 1 1 1 1 1 1 1 0,8,categoryA,f,,,0,7,7,0,0,7,7,0,,,,,,,,,,,,,,,,,,,f,1,0.5373518329579383,,,,,,,,,,,,,,,,,,,,,,,,,,,,,,,,,,,,103,002,2021_Sep_24_0914,joplin1,2021.2.3,59.83572103779843,
_train_cond.csv,0 0 0 1 0 0 1 0 0 0,2,categoryB,j,,,0,7,7,0,0,8,8,11,,,,,,,,,,,,,,,,,,,j,1,0.3944014587905258,,,,,,,,,,,,,,,,,,,,,,,,,,,,,,,,,,,,103,002,2021_Sep_24_0914,joplin1,2021.2.3,59.83572103779843,
_train_cond.csv,1 1 1 0 0 0 0 1 1 1,6,categoryA,f,,,0,7,7,0,0,9,9,3,,,,,,,,,,,,,,,,,,,f,1,0.45660199993290007,,,,,,,,,,,,,,,,,,,,,,,,,,,,,,,,,,,,103,002,2021_Sep_24_0914,joplin1,2021.2.3,59.83572103779843,
_train_cond.csv,1 1 0 1 0 0 1 0 1 1,6,categoryA,f,,,0,7,7,0,0,10,10,2,,,,,,,,,,,,,,,,,,,j,0,0.4620349588803947,,,,,,,,,,,,,,,,,,,,,,,,,,,,,,,,,,,,103,002,2021_Sep_24_0914,joplin1,2021.2.3,59.83572103779843,
_train_cond.csv,1 1 0 0 0 0 0 0 1 1,4,categoryB,j,,,0,7,7,0,0,11,11,13,,,,,,,,,,,,,,,,,,,j,1,0.32941012480296195,,,,,,,,,,,,,,,,,,,,,,,,,,,,,,,,,,,,103,002,2021_Sep_24_0914,joplin1,2021.2.3,59.83572103779843,
_train_cond.csv,0 0 1 0 0 0 0 1 0 0,2,categoryB,j,,,0,7,7,0,0,12,12,12,,,,,,,,,,,,,,,,,,,j,1,0.8827103339135647,,,,,,,,,,,,,,,,,,,,,,,,,,,,,,,,,,,,103,002,2021_Sep_24_0914,joplin1,2021.2.3,59.83572103779843,
_train_cond.csv,0 1 0 0 0 0 0 0 1 0,2,categoryB,j,,,0,7,7,0,0,13,13,8,,,,,,,,,,,,,,,,,,,f,0,1.2074342919513583,,,,,,,,,,,,,,,,,,,,,,,,,,,,,,,,,,,,103,002,2021_Sep_24_0914,joplin1,2021.2.3,59.83572103779843,
_train_cond.csv,1 1 0 1 1 1 1 0 1 1,8,categoryA,f,,,0,7,7,0,1,0,14,5,,,,,,,,,,,,,,,,,,,f,1,0.6617249161936343,,,,,,,,,,,,,,,,,,,,,,,,,,,,,,,,,,,,103,002,2021_Sep_24_0914,joplin1,2021.2.3,59.83572103779843,
_train_cond.csv,1 0 1 1 1 1 1 1 0 1,8,categoryA,f,,,0,7,7,0,1,1,15,1,,,,,,,,,,,,,,,,,,,f,1,0.5209730418864638,,,,,,,,,,,,,,,,,,,,,,,,,,,,,,,,,,,,103,002,2021_Sep_24_0914,joplin1,2021.2.3,59.83572103779843,
_train_cond.csv,1 1 0 0 0 0 0 0 1 1,4,categoryB,j,,,0,7,7,0,1,2,16,13,,,,,,,,,,,,,,,,,,,j,1,0.7080022091977298,,,,,,,,,,,,,,,,,,,,,,,,,,,,,,,,,,,,103,002,2021_Sep_24_0914,joplin1,2021.2.3,59.83572103779843,
_train_cond.csv,1 1 1 0 0 0 0 1 1 1,6,categoryA,f,,,0,7,7,0,1,3,17,3,,,,,,,,,,,,,,,,,,,f,1,0.33292316691949964,,,,,,,,,,,,,,,,,,,,,,,,,,,,,,,,,,,,103,002,2021_Sep_24_0914,joplin1,2021.2.3,59.83572103779843,
_train_cond.csv,1 1 1 0 1 1 0 1 1 1,8,categoryA,f,,,0,7,7,0,1,4,18,4,,,,,,,,,,,,,,,,,,,f,1,0.41553599992766976,,,,,,,,,,,,,,,,,,,,,,,,,,,,,,,,,,,,103,002,2021_Sep_24_0914,joplin1,2021.2.3,59.83572103779843,
_train_cond.csv,0 0 0 1 1 1 1 0 0 0,4,categoryB,j,,,0,7,7,0,1,5,19,10,,,,,,,,,,,,,,,,,,,j,1,0.6231397918891162,,,,,,,,,,,,,,,,,,,,,,,,,,,,,,,,,,,,103,002,2021_Sep_24_0914,joplin1,2021.2.3,59.83572103779843,
_train_cond.csv,0 0 0 1 0 0 1 0 0 0,2,categoryB,j,,,0,7,7,0,1,6,20,11,,,,,,,,,,,,,,,,,,,j,1,0.3404442500323057,,,,,,,,,,,,,,,,,,,,,,,,,,,,,,,,,,,,103,002,2021_Sep_24_0914,joplin1,2021.2.3,59.83572103779843,
_train_cond.csv,0 0 1 0 1 1 0 1 0 0,4,categoryB,j,,,0,7,7,0,1,7,21,9,,,,,,,,,,,,,,,,,,,f,0,0.277170917019248,,,,,,,,,,,,,,,,,,,,,,,,,,,,,,,,,,,,103,002,2021_Sep_24_0914,joplin1,2021.2.3,59.83572103779843,
_train_cond.csv,0 0 1 0 0 0 0 1 0 0,2,categoryB,j,,,0,7,7,0,1,8,22,12,,,,,,,,,,,,,,,,,,,j,1,0.6327912921551615,,,,,,,,,,,,,,,,,,,,,,,,,,,,,,,,,,,,103,002,2021_Sep_24_0914,joplin1,2021.2.3,59.83572103779843,
_train_cond.csv,1 1 0 1 0 0 1 0 1 1,6,categoryA,f,,,0,7,7,0,1,9,23,2,,,,,,,,,,,,,,,,,,,f,1,0.5265997918322682,,,,,,,,,,,,,,,,,,,,,,,,,,,,,,,,,,,,103,002,2021_Sep_24_0914,joplin1,2021.2.3,59.83572103779843,
_train_cond.csv,0 1 0 0 0 0 0 0 1 0,2,categoryB,j,,,0,7,7,0,1,10,24,8,,,,,,,,,,,,,,,,,,,j,1,0.48733108304440975,,,,,,,,,,,,,,,,,,,,,,,,,,,,,,,,,,,,103,002,2021_Sep_24_0914,joplin1,2021.2.3,59.83572103779843,
_train_cond.csv,1 0 0 0 0 0 0 0 0 1,2,categoryB,j,,,0,7,7,0,1,11,25,7,,,,,,,,,,,,,,,,,,,f,0,0.36223541712388396,,,,,,,,,,,,,,,,,,,,,,,,,,,,,,,,,,,,103,002,2021_Sep_24_0914,joplin1,2021.2.3,59.83572103779843,
_train_cond.csv,0 1 1 1 1 1 1 1 1 0,8,categoryA,f,,,0,7,7,0,1,12,26,0,,,,,,,,,,,,,,,,,,,f,1,0.38674829178489745,,,,,,,,,,,,,,,,,,,,,,,,,,,,,,,,,,,,103,002,2021_Sep_24_0914,joplin1,2021.2.3,59.83572103779843,
_train_cond.csv,0 0 1 1 1 1 1 1 0 0,6,categoryA,f,,,0,7,7,0,1,13,27,6,,,,,,,,,,,,,,,,,,,f,1,0.24894337495788932,,,,,,,,,,,,,,,,,,,,,,,,,,,,,,,,,,,,103,002,2021_Sep_24_0914,joplin1,2021.2.3,59.83572103779843,
_train_cond.csv,0 0 0 1 1 1 1 0 0 0,4,categoryB,j,,,0,7,7,0,2,0,28,10,,,,,,,,,,,,,,,,,,,j,1,0.27917174994945526,,,,,,,,,,,,,,,,,,,,,,,,,,,,,,,,,,,,103,002,2021_Sep_24_0914,joplin1,2021.2.3,59.83572103779843,
_train_cond.csv,1 1 1 0 0 0 0 1 1 1,6,categoryA,f,,,0,7,7,0,2,1,29,3,,,,,,,,,,,,,,,,,,,f,1,0.6586891249753535,,,,,,,,,,,,,,,,,,,,,,,,,,,,,,,,,,,,103,002,2021_Sep_24_0914,joplin1,2021.2.3,59.83572103779843,
_train_cond.csv,1 1 0 1 0 0 1 0 1 1,6,categoryA,f,,,0,7,7,0,2,2,30,2,,,,,,,,,,,,,,,,,,,j,0,0.9974200841970742,,,,,,,,,,,,,,,,,,,,,,,,,,,,,,,,,,,,103,002,2021_Sep_24_0914,joplin1,2021.2.3,59.83572103779843,
_train_cond.csv,1 1 0 1 1 1 1 0 1 1,8,categoryA,f,,,0,7,7,0,2,3,31,5,,,,,,,,,,,,,,,,,,,f,1,0.7813740419223905,,,,,,,,,,,,,,,,,,,,,,,,,,,,,,,,,,,,103,002,2021_Sep_24_0914,joplin1,2021.2.3,59.83572103779843,
_train_cond.csv,0 0 0 1 0 0 1 0 0 0,2,categoryB,j,,,0,7,7,0,2,4,32,11,,,,,,,,,,,,,,,,,,,j,1,0.540613958844915,,,,,,,,,,,,,,,,,,,,,,,,,,,,,,,,,,,,103,002,2021_Sep_24_0914,joplin1,2021.2.3,59.83572103779843,
_train_cond.csv,1 0 1 1 1 1 1 1 0 1,8,categoryA,f,,,0,7,7,0,2,5,33,1,,,,,,,,,,,,,,,,,,,f,1,0.35613754112273455,,,,,,,,,,,,,,,,,,,,,,,,,,,,,,,,,,,,103,002,2021_Sep_24_0914,joplin1,2021.2.3,59.83572103779843,
_train_cond.csv,1 0 0 0 0 0 0 0 0 1,2,categoryB,j,,,0,7,7,0,2,6,34,7,,,,,,,,,,,,,,,,,,,j,1,0.40478341607376933,,,,,,,,,,,,,,,,,,,,,,,,,,,,,,,,,,,,103,002,2021_Sep_24_0914,joplin1,2021.2.3,59.83572103779843,
_train_cond.csv,1 1 0 0 0 0 0 0 1 1,4,categoryB,j,,,0,7,7,0,2,7,35,13,,,,,,,,,,,,,,,,,,,j,1,0.6589437080547214,,,,,,,,,,,,,,,,,,,,,,,,,,,,,,,,,,,,103,002,2021_Sep_24_0914,joplin1,2021.2.3,59.83572103779843,
_train_cond.csv,0 0 1 1 1 1 1 1 0 0,6,categoryA,f,,,0,7,7,0,2,8,36,6,,,,,,,,,,,,,,,,,,,f,1,0.2954007079824805,,,,,,,,,,,,,,,,,,,,,,,,,,,,,,,,,,,,103,002,2021_Sep_24_0914,joplin1,2021.2.3,59.83572103779843,
_train_cond.csv,0 0 1 0 1 1 0 1 0 0,4,categoryB,j,,,0,7,7,0,2,9,37,9,,,,,,,,,,,,,,,,,,,j,1,0.33904899982735515,,,,,,,,,,,,,,,,,,,,,,,,,,,,,,,,,,,,103,002,2021_Sep_24_0914,joplin1,2021.2.3,59.83572103779843,
_train_cond.csv,0 1 0 0 0 0 0 0 1 0,2,categoryB,j,,,0,7,7,0,2,10,38,8,,,,,,,,,,,,,,,,,,,j,1,0.5067582500632852,,,,,,,,,,,,,,,,,,,,,,,,,,,,,,,,,,,,103,002,2021_Sep_24_0914,joplin1,2021.2.3,59.83572103779843,
_train_cond.csv,1 1 1 0 1 1 0 1 1 1,8,categoryA,f,,,0,7,7,0,2,11,39,4,,,,,,,,,,,,,,,,,,,f,1,1.0454569160938263,,,,,,,,,,,,,,,,,,,,,,,,,,,,,,,,,,,,103,002,2021_Sep_24_0914,joplin1,2021.2.3,59.83572103779843,
_train_cond.csv,0 0 1 0 0 0 0 1 0 0,2,categoryB,j,,,0,7,7,0,2,12,40,12,,,,,,,,,,,,,,,,,,,j,1,0.6820757908280939,,,,,,,,,,,,,,,,,,,,,,,,,,,,,,,,,,,,103,002,2021_Sep_24_0914,joplin1,2021.2.3,59.83572103779843,
_train_cond.csv,0 1 1 1 1 1 1 1 1 0,8,categoryA,f,,,0,7,7,0,2,13,41,0,,,,,,,,,,,,,,,,,,,f,1,0.3338013750035316,,,,,,,,,,,,,,,,,,,,,,,,,,,,,,,,,,,,103,002,2021_Sep_24_0914,joplin1,2021.2.3,59.83572103779843,
_train_cond.csv,,,,,,,0,7,7,0,,,,,,,,,,,,,,,,,,,,,,,,,,space,1.3903758330270648,,,,,,,,,,,,,,,,,,,,,,,,,,,,,,,,,,103,002,2021_Sep_24_0914,joplin1,2021.2.3,59.83572103779843,
,,,,,,,,,,,,,,,,,,,,,,,,,,,,,,,,,,,,,,q,17.43828104203567,,,,,,,,,,,,,,,,,,,,,,,,,,,,,,,,103,002,2021_Sep_24_0914,joplin1,2021.2.3,59.83572103779843,
,,,,,,,,,,,,,,,,,,,,,,,,,,,,,,,,,,,,,,,,j,22.5560945419129,,,,,,,,,,,,,,,,,,,,,,,,,,,,,,103,002,2021_Sep_24_0914,joplin1,2021.2.3,59.83572103779843,
,,,,,,,,,,,,,,,,,,,,,,,,,,,,,,,,,,,,,,,,,,space,5.4201177910435945,,,,,,,,,,,,,,,,,,,,,,,,,,,,103,002,2021_Sep_24_0914,joplin1,2021.2.3,59.83572103779843,
,,,,,,,,,,,,,,,,,,,,,,,,,,,,,,,,,,,,,,,,,,,,space,2.0340729157906026,,,,,,,,,,,,,,,,,,,,,,,,,,103,002,2021_Sep_24_0914,joplin1,2021.2.3,59.83572103779843,
,0 0 0 1 0 1 0 0 0 0,2,categoryB,j,genfile2.csv,0,,,,,,,,,0,0,0,1,0,0,0,49,,,,,,,,,,,,,,,,,,,,,,,,j,1,0.6680178330279887,,,,,,,,,,,,,,,,,,,,,,,103,002,2021_Sep_24_0914,joplin1,2021.2.3,59.83572103779843,
,1 1 1 0 1 1 0 1 1 1,8,categoryA,f,genfile2.csv,1,,,,,,,,,0,0,0,1,0,1,1,6,,,,,,,,,,,,,,,,,,,,,,,,f,1,0.7282547079958022,,,,,,,,,,,,,,,,,,,,,,,103,002,2021_Sep_24_0914,joplin1,2021.2.3,59.83572103779843,
,0 0 0 0 0 1 0 0 0 1,2,categoryB,j,genfile2.csv,0,,,,,,,,,0,0,0,1,0,2,2,48,,,,,,,,,,,,,,,,,,,,,,,,f,0,0.8422831250354648,,,,,,,,,,,,,,,,,,,,,,,103,002,2021_Sep_24_0914,joplin1,2021.2.3,59.83572103779843,
,1 0 1 1 1 1 1 1 0 1,8,categoryA,f,genfile2.csv,1,,,,,,,,,0,0,0,1,0,3,3,3,,,,,,,,,,,,,,,,,,,,,,,,f,1,0.9662891670595855,,,,,,,,,,,,,,,,,,,,,,,103,002,2021_Sep_24_0914,joplin1,2021.2.3,59.83572103779843,
,0 0 0 0 0 1 0 1 0 1,3,categoryB,j,genfile2.csv,0,,,,,,,,,0,0,0,1,0,4,4,42,,,,,,,,,,,,,,,,,,,,,,,,f,0,0.7254202920012176,,,,,,,,,,,,,,,,,,,,,,,103,002,2021_Sep_24_0914,joplin1,2021.2.3,59.83572103779843,
,1 1 1 1 0 0 0 1 0 1,6,categoryA,f,genfile2.csv,0,,,,,,,,,0,0,0,1,0,5,5,31,,,,,,,,,,,,,,,,,,,,,,,,f,1,0.28559725009836257,,,,,,,,,,,,,,,,,,,,,,,103,002,2021_Sep_24_0914,joplin1,2021.2.3,59.83572103779843,
,0 1 0 0 0 0 0 0 1 1,3,categoryB,j,genfile2.csv,0,,,,,,,,,0,0,0,1,0,6,6,44,,,,,,,,,,,,,,,,,,,,,,,,j,1,0.5414264581631869,,,,,,,,,,,,,,,,,,,,,,,103,002,2021_Sep_24_0914,joplin1,2021.2.3,59.83572103779843,
,0 0 1 0 0 1 1 1 1 1,6,categoryA,f,genfile2.csv,0,,,,,,,,,0,0,0,1,0,7,7,32,,,,,,,,,,,,,,,,,,,,,,,,f,1,0.43733512493781745,,,,,,,,,,,,,,,,,,,,,,,103,002,2021_Sep_24_0914,joplin1,2021.2.3,59.83572103779843,
,1 1 1 1 0 1 0 0 1 1,7,categoryA,f,genfile2.csv,0,,,,,,,,,0,0,0,1,0,8,8,27,,,,,,,,,,,,,,,,,,,,,,,,f,1,0.25760079198516905,,,,,,,,,,,,,,,,,,,,,,,103,002,2021_Sep_24_0914,joplin1,2021.2.3,59.83572103779843,
,0 0 0 1 1 1 0 0 1 0,4,categoryB,j,genfile2.csv,0,,,,,,,,,0,0,0,1,0,9,9,38,,,,,,,,,,,,,,,,,,,,,,,,j,1,0.26207087514922023,,,,,,,,,,,,,,,,,,,,,,,103,002,2021_Sep_24_0914,joplin1,2021.2.3,59.83572103779843,
,0 0 0 0 0 0 0 0 1 0,1,categoryB,j,genfile2.csv,0,,,,,,,,,0,0,0,1,0,10,10,53,,,,,,,,,,,,,,,,,,,,,,,,f,0,1.3538089168723673,,,,,,,,,,,,,,,,,,,,,,,103,002,2021_Sep_24_0914,joplin1,2021.2.3,59.83572103779843,
,0 1 1 1 1 0 0 0 1 1,6,categoryA,f,genfile2.csv,0,,,,,,,,,0,0,0,1,0,11,11,35,,,,,,,,,,,,,,,,,,,,,,,,f,1,1.269946665968746,,,,,,,,,,,,,,,,,,,,,,,103,002,2021_Sep_24_0914,joplin1,2021.2.3,59.83572103779843,
,1 1 1 1 1 1 1 1 1 1,10,categoryA,f,genfile2.csv,0,,,,,,,,,0,0,0,1,0,12,12,1,,,,,,,,,,,,,,,,,,,,,,,,f,1,0.2568377908319235,,,,,,,,,,,,,,,,,,,,,,,103,002,2021_Sep_24_0914,joplin1,2021.2.3,59.83572103779843,
,0 0 0 0 0 0 0 0 0 0,0,categoryB,j,genfile2.csv,0,,,,,,,,,0,0,0,1,0,13,13,0,,,,,,,,,,,,,,,,,,,,,,,,j,1,0.9330135830678046,,,,,,,,,,,,,,,,,,,,,,,103,002,2021_Sep_24_0914,joplin1,2021.2.3,59.83572103779843,
,0 1 0 0 0 0 0 0 0 1,2,categoryB,j,genfile2.csv,0,,,,,,,,,0,0,0,1,0,14,14,50,,,,,,,,,,,,,,,,,,,,,,,,j,1,0.3341924580745399,,,,,,,,,,,,,,,,,,,,,,,103,002,2021_Sep_24_0914,joplin1,2021.2.3,59.83572103779843,
,0 1 0 1 0 0 1 0 0 0,3,categoryB,j,genfile2.csv,0,,,,,,,,,0,0,0,1,0,15,15,41,,,,,,,,,,,,,,,,,,,,,,,,j,1,0.4214721249882132,,,,,,,,,,,,,,,,,,,,,,,103,002,2021_Sep_24_0914,joplin1,2021.2.3,59.83572103779843,
,1 0 1 0 0 0 0 0 0 0,2,categoryB,j,genfile2.csv,0,,,,,,,,,0,0,0,1,0,16,16,47,,,,,,,,,,,,,,,,,,,,,,,,j,1,0.4753885001409799,,,,,,,,,,,,,,,,,,,,,,,103,002,2021_Sep_24_0914,joplin1,2021.2.3,59.83572103779843,
,0 1 1 0 1 0 1 1 1 1,7,categoryA,f,genfile2.csv,0,,,,,,,,,0,0,0,1,0,17,17,28,,,,,,,,,,,,,,,,,,,,,,,,f,1,0.27701533306390047,,,,,,,,,,,,,,,,,,,,,,,103,002,2021_Sep_24_0914,joplin1,2021.2.3,59.83572103779843,
,1 0 1 1 1 1 1 1 1 1,9,categoryA,f,genfile2.csv,0,,,,,,,,,0,0,0,1,0,18,18,16,,,,,,,,,,,,,,,,,,,,,,,,f,1,0.39203441701829433,,,,,,,,,,,,,,,,,,,,,,,103,002,2021_Sep_24_0914,joplin1,2021.2.3,59.83572103779843,
,1 1 1 0 1 1 1 1 1 1,9,categoryA,f,genfile2.csv,0,,,,,,,,,0,0,0,1,0,19,19,20,,,,,,,,,,,,,,,,,,,,,,,,f,1,0.39133529202081263,,,,,,,,,,,,,,,,,,,,,,,103,002,2021_Sep_24_0914,joplin1,2021.2.3,59.83572103779843,
,0 1 1 1 1 1 1 1 0 1,8,categoryA,f,genfile2.csv,0,,,,,,,,,0,0,0,1,0,20,20,22,,,,,,,,,,,,,,,,,,,,,,,,f,1,0.2938814158551395,,,,,,,,,,,,,,,,,,,,,,,103,002,2021_Sep_24_0914,joplin1,2021.2.3,59.83572103779843,
,0 0 0 0 0 0 0 0 1 1,2,categoryB,j,genfile2.csv,0,,,,,,,,,0,0,0,1,0,21,21,46,,,,,,,,,,,,,,,,,,,,,,,,j,1,0.26457224995829165,,,,,,,,,,,,,,,,,,,,,,,103,002,2021_Sep_24_0914,joplin1,2021.2.3,59.83572103779843,
,1 1 1 0 0 0 0 1 1 1,6,categoryA,f,genfile2.csv,1,,,,,,,,,0,0,0,1,0,22,22,5,,,,,,,,,,,,,,,,,,,,,,,,f,1,0.2610637918114662,,,,,,,,,,,,,,,,,,,,,,,103,002,2021_Sep_24_0914,joplin1,2021.2.3,59.83572103779843,
,1 1 0 1 1 0 0 1 1 0,6,categoryA,f,genfile2.csv,0,,,,,,,,,0,0,0,1,0,23,23,33,,,,,,,,,,,,,,,,,,,,,,,,j,0,0.3373621250502765,,,,,,,,,,,,,,,,,,,,,,,103,002,2021_Sep_24_0914,joplin1,2021.2.3,59.83572103779843,
,1 1 0 1 0 0 1 0 1 1,6,categoryA,f,genfile2.csv,1,,,,,,,,,0,0,0,1,0,24,24,4,,,,,,,,,,,,,,,,,,,,,,,,j,0,0.27489691716618836,,,,,,,,,,,,,,,,,,,,,,,103,002,2021_Sep_24_0914,joplin1,2021.2.3,59.83572103779843,
,0 0 0 1 0 0 1 0 0 0,2,categoryB,j,genfile2.csv,1,,,,,,,,,0,0,0,1,0,25,25,13,,,,,,,,,,,,,,,,,,,,,,,,j,1,0.4788868750911206,,,,,,,,,,,,,,,,,,,,,,,103,002,2021_Sep_24_0914,joplin1,2021.2.3,59.83572103779843,
,0 1 1 1 1 1 1 1 1 0,8,categoryA,f,genfile2.csv,1,,,,,,,,,0,0,0,1,0,26,26,2,,,,,,,,,,,,,,,,,,,,,,,,f,1,0.37136920797638595,,,,,,,,,,,,,,,,,,,,,,,103,002,2021_Sep_24_0914,joplin1,2021.2.3,59.83572103779843,
,1 1 1 1 0 1 1 1 1 1,9,categoryA,f,genfile2.csv,0,,,,,,,,,0,0,0,1,0,27,27,17,,,,,,,,,,,,,,,,,,,,,,,,f,1,0.33841808303259313,,,,,,,,,,,,,,,,,,,,,,,103,002,2021_Sep_24_0914,joplin1,2021.2.3,59.83572103779843,
,0 1 0 0 0 0 1 1 0 0,3,categoryB,j,genfile2.csv,0,,,,,,,,,0,0,0,1,0,28,28,43,,,,,,,,,,,,,,,,,,,,,,,,j,1,0.33931341697461903,,,,,,,,,,,,,,,,,,,,,,,103,002,2021_Sep_24_0914,joplin1,2021.2.3,59.83572103779843,
,0 1 0 0 0 0 0 0 1 0,2,categoryB,j,genfile2.csv,1,,,,,,,,,0,0,0,1,0,29,29,10,,,,,,,,,,,,,,,,,,,,,,,,j,1,0.30780770909041166,,,,,,,,,,,,,,,,,,,,,,,103,002,2021_Sep_24_0914,joplin1,2021.2.3,59.83572103779843,
,0 1 0 0 0 1 1 0 0 0,3,categoryB,j,genfile2.csv,0,,,,,,,,,0,0,0,1,0,30,30,45,,,,,,,,,,,,,,,,,,,,,,,,j,1,0.3254759160336107,,,,,,,,,,,,,,,,,,,,,,,103,002,2021_Sep_24_0914,joplin1,2021.2.3,59.83572103779843,
,0 0 0 0 1 0 0 0 0 0,1,categoryB,j,genfile2.csv,0,,,,,,,,,0,0,0,1,0,31,31,54,,,,,,,,,,,,,,,,,,,,,,,,j,1,0.3266127500683069,,,,,,,,,,,,,,,,,,,,,,,103,002,2021_Sep_24_0914,joplin1,2021.2.3,59.83572103779843,
,0 1 1 0 0 1 1 1 1 1,7,categoryA,f,genfile2.csv,0,,,,,,,,,0,0,0,1,0,32,32,29,,,,,,,,,,,,,,,,,,,,,,,,f,1,0.20692954189144075,,,,,,,,,,,,,,,,,,,,,,,103,002,2021_Sep_24_0914,joplin1,2021.2.3,59.83572103779843,
,0 0 0 1 1 1 1 0 0 0,4,categoryB,j,genfile2.csv,1,,,,,,,,,0,0,0,1,0,33,33,12,,,,,,,,,,,,,,,,,,,,,,,,f,0,0.2453936249949038,,,,,,,,,,,,,,,,,,,,,,,103,002,2021_Sep_24_0914,joplin1,2021.2.3,59.83572103779843,
,0 0 0 0 0 0 1 0 0 0,1,categoryB,j,genfile2.csv,0,,,,,,,,,0,0,0,1,0,34,34,52,,,,,,,,,,,,,,,,,,,,,,,,j,1,0.6414042920805514,,,,,,,,,,,,,,,,,,,,,,,103,002,2021_Sep_24_0914,joplin1,2021.2.3,59.83572103779843,
,1 1 1 0 1 1 1 1 1 0,8,categoryA,f,genfile2.csv,0,,,,,,,,,0,0,0,1,0,35,35,25,,,,,,,,,,,,,,,,,,,,,,,,j,0,0.5500013751443475,,,,,,,,,,,,,,,,,,,,,,,103,002,2021_Sep_24_0914,joplin1,2021.2.3,59.83572103779843,
,0 0 1 0 0 0 0 0 0 0,1,categoryB,j,genfile2.csv,0,,,,,,,,,0,0,0,1,0,36,36,55,,,,,,,,,,,,,,,,,,,,,,,,j,1,0.2554563751909882,,,,,,,,,,,,,,,,,,,,,,,103,002,2021_Sep_24_0914,joplin1,2021.2.3,59.83572103779843,
,1 1 0 0 1 1 1 1 0 1,7,categoryA,f,genfile2.csv,0,,,,,,,,,0,0,0,1,0,37,37,30,,,,,,,,,,,,,,,,,,,,,,,,f,1,0.42626549978740513,,,,,,,,,,,,,,,,,,,,,,,103,002,2021_Sep_24_0914,joplin1,2021.2.3,59.83572103779843,
,1 1 1 1 0 1 1 0 1 1,8,categoryA,f,genfile2.csv,0,,,,,,,,,0,0,0,1,0,38,38,21,,,,,,,,,,,,,,,,,,,,,,,,f,1,0.31991616706363857,,,,,,,,,,,,,,,,,,,,,,,103,002,2021_Sep_24_0914,joplin1,2021.2.3,59.83572103779843,
,0 0 1 1 1 1 1 1 0 0,6,categoryA,f,genfile2.csv,1,,,,,,,,,0,0,0,1,0,39,39,8,,,,,,,,,,,,,,,,,,,,,,,,j,0,0.4419617080129683,,,,,,,,,,,,,,,,,,,,,,,103,002,2021_Sep_24_0914,joplin1,2021.2.3,59.83572103779843,
,1 1 1 1 1 1 1 0 1 1,9,categoryA,f,genfile2.csv,0,,,,,,,,,0,0,0,1,0,40,40,18,,,,,,,,,,,,,,,,,,,,,,,,f,1,0.24712337483651936,,,,,,,,,,,,,,,,,,,,,,,103,002,2021_Sep_24_0914,joplin1,2021.2.3,59.83572103779843,
,1 1 0 0 0 0 0 0 1 1,4,categoryB,j,genfile2.csv,1,,,,,,,,,0,0,0,1,0,41,41,15,,,,,,,,,,,,,,,,,,,,,,,,j,1,0.5645256249699742,,,,,,,,,,,,,,,,,,,,,,,103,002,2021_Sep_24_0914,joplin1,2021.2.3,59.83572103779843,
,0 0 1 1 0 0 0 1 1 0,4,categoryB,j,genfile2.csv,0,,,,,,,,,0,0,0,1,0,42,42,40,,,,,,,,,,,,,,,,,,,,,,,,j,1,0.21878833300434053,,,,,,,,,,,,,,,,,,,,,,,103,002,2021_Sep_24_0914,joplin1,2021.2.3,59.83572103779843,
,1 1 1 1 1 1 0 1 1 0,8,categoryA,f,genfile2.csv,0,,,,,,,,,0,0,0,1,0,43,43,23,,,,,,,,,,,,,,,,,,,,,,,,f,1,0.25673791603185236,,,,,,,,,,,,,,,,,,,,,,,103,002,2021_Sep_24_0914,joplin1,2021.2.3,59.83572103779843,
,0 0 1 0 1 1 0 1 0 0,4,categoryB,j,genfile2.csv,1,,,,,,,,,0,0,0,1,0,44,44,11,,,,,,,,,,,,,,,,,,,,,,,,j,1,0.2780471248552203,,,,,,,,,,,,,,,,,,,,,,,103,002,2021_Sep_24_0914,joplin1,2021.2.3,59.83572103779843,
,1 0 0 0 0 0 0 0 0 1,2,categoryB,j,genfile2.csv,1,,,,,,,,,0,0,0,1,0,45,45,9,,,,,,,,,,,,,,,,,,,,,,,,j,1,0.3136412079911679,,,,,,,,,,,,,,,,,,,,,,,103,002,2021_Sep_24_0914,joplin1,2021.2.3,59.83572103779843,
,0 0 1 1 1 1 1 1 1 1,8,categoryA,f,genfile2.csv,0,,,,,,,,,0,0,0,1,0,46,46,24,,,,,,,,,,,,,,,,,,,,,,,,f,1,0.22830691700801253,,,,,,,,,,,,,,,,,,,,,,,103,002,2021_Sep_24_0914,joplin1,2021.2.3,59.83572103779843,
,1 1 0 1 1 1 1 1 1 1,9,categoryA,f,genfile2.csv,0,,,,,,,,,0,0,0,1,0,47,47,19,,,,,,,,,,,,,,,,,,,,,,,,f,1,0.27135316701605916,,,,,,,,,,,,,,,,,,,,,,,103,002,2021_Sep_24_0914,joplin1,2021.2.3,59.83572103779843,
,0 0 1 0 0 0 0 1 0 0,2,categoryB,j,genfile2.csv,1,,,,,,,,,0,0,0,1,0,48,48,14,,,,,,,,,,,,,,,,,,,,,,,,j,1,0.2680323328822851,,,,,,,,,,,,,,,,,,,,,,,103,002,2021_Sep_24_0914,joplin1,2021.2.3,59.83572103779843,
,1 1 0 0 1 0 1 1 1 1,7,categoryA,f,genfile2.csv,0,,,,,,,,,0,0,0,1,0,49,49,26,,,,,,,,,,,,,,,,,,,,,,,,None,0,,,,,,,,,,,,,,,,,,,,,,,,103,002,2021_Sep_24_0914,joplin1,2021.2.3,59.83572103779843,
,1 0 1 0 0 1 0 1 0 0,4,categoryB,j,genfile2.csv,0,,,,,,,,,0,0,0,1,0,50,50,36,,,,,,,,,,,,,,,,,,,,,,,,j,1,0.263263292144984,,,,,,,,,,,,,,,,,,,,,,,103,002,2021_Sep_24_0914,joplin1,2021.2.3,59.83572103779843,
,1 1 0 1 1 1 1 0 1 1,8,categoryA,f,genfile2.csv,1,,,,,,,,,0,0,0,1,0,51,51,7,,,,,,,,,,,,,,,,,,,,,,,,f,1,0.9391335828695446,,,,,,,,,,,,,,,,,,,,,,,103,002,2021_Sep_24_0914,joplin1,2021.2.3,59.83572103779843,
,1 1 0 0 1 0 0 0 0 1,4,categoryB,j,genfile2.csv,0,,,,,,,,,0,0,0,1,0,52,52,39,,,,,,,,,,,,,,,,,,,,,,,,f,0,0.4999714170116931,,,,,,,,,,,,,,,,,,,,,,,103,002,2021_Sep_24_0914,joplin1,2021.2.3,59.83572103779843,
,1 1 1 0 0 1 0 1 0 1,6,categoryA,f,genfile2.csv,0,,,,,,,,,0,0,0,1,0,53,53,34,,,,,,,,,,,,,,,,,,,,,,,,f,1,0.5340020000003278,,,,,,,,,,,,,,,,,,,,,,,103,002,2021_Sep_24_0914,joplin1,2021.2.3,59.83572103779843,
,1 0 0 0 0 0 0 0 0 0,1,categoryB,j,genfile2.csv,0,,,,,,,,,0,0,0,1,0,54,54,51,,,,,,,,,,,,,,,,,,,,,,,,j,1,0.22323579085059464,,,,,,,,,,,,,,,,,,,,,,,103,002,2021_Sep_24_0914,joplin1,2021.2.3,59.83572103779843,
,0 1 1 0 0 0 1 0 1 0,4,categoryB,j,genfile2.csv,0,,,,,,,,,0,0,0,1,0,55,55,37,,,,,,,,,,,,,,,,,,,,,,,,j,1,0.22030308307148516,,,,,,,,,,,,,,,,,,,,,,,103,002,2021_Sep_24_0914,joplin1,2021.2.3,59.83572103779843,
,,,,,genfile2.csv,,,,,,,,,,0,0,0,1,,,,,,,,,,,,,,,,,,space,3.905705915996805,,,,,,,,,,,,,,,,,,,,,,,,,,,,,,,,,,103,002,2021_Sep_24_0914,joplin1,2021.2.3,59.83572103779843,
,0 0 1 0 0 1 1 0 0 0,3,categoryB,j,genfile1.csv,0,,,,,,,,,0,1,1,0,0,0,0,43,,,,,,,,,,,,,,,,,,,,,,,,j,1,0.3624663751106709,,,,,,,,,,,,,,,,,,,,,,,103,002,2021_Sep_24_0914,joplin1,2021.2.3,59.83572103779843,
,0 0 1 1 0 0 0 0 0 0,2,categoryB,j,genfile1.csv,0,,,,,,,,,0,1,1,0,0,1,1,46,,,,,,,,,,,,,,,,,,,,,,,,j,1,0.36264916718937457,,,,,,,,,,,,,,,,,,,,,,,103,002,2021_Sep_24_0914,joplin1,2021.2.3,59.83572103779843,
,1 0 0 0 0 0 0 0 0 1,2,categoryB,j,genfile1.csv,1,,,,,,,,,0,1,1,0,0,2,2,9,,,,,,,,,,,,,,,,,,,,,,,,j,1,0.30742254201322794,,,,,,,,,,,,,,,,,,,,,,,103,002,2021_Sep_24_0914,joplin1,2021.2.3,59.83572103779843,
,1 1 1 0 1 1 0 1 1 1,8,categoryA,f,genfile1.csv,1,,,,,,,,,0,1,1,0,0,3,3,6,,,,,,,,,,,,,,,,,,,,,,,,f,1,0.20604920806363225,,,,,,,,,,,,,,,,,,,,,,,103,002,2021_Sep_24_0914,joplin1,2021.2.3,59.83572103779843,
,0 0 1 0 0 0 0 1 0 0,2,categoryB,j,genfile1.csv,1,,,,,,,,,0,1,1,0,0,4,4,14,,,,,,,,,,,,,,,,,,,,,,,,j,1,0.35697537497617304,,,,,,,,,,,,,,,,,,,,,,,103,002,2021_Sep_24_0914,joplin1,2021.2.3,59.83572103779843,
,0 1 1 1 1 1 1 1 1 1,9,categoryA,f,genfile1.csv,0,,,,,,,,,0,1,1,0,0,5,5,16,,,,,,,,,,,,,,,,,,,,,,,,f,1,0.29318916611373425,,,,,,,,,,,,,,,,,,,,,,,103,002,2021_Sep_24_0914,joplin1,2021.2.3,59.83572103779843,
,0 1 1 1 1 1 1 1 1 0,8,categoryA,f,genfile1.csv,1,,,,,,,,,0,1,1,0,0,6,6,2,,,,,,,,,,,,,,,,,,,,,,,,f,1,0.4242715418804437,,,,,,,,,,,,,,,,,,,,,,,103,002,2021_Sep_24_0914,joplin1,2021.2.3,59.83572103779843,
,0 1 0 0 0 0 0 0 0 0,1,categoryB,j,genfile1.csv,0,,,,,,,,,0,1,1,0,0,7,7,54,,,,,,,,,,,,,,,,,,,,,,,,f,0,0.18993250001221895,,,,,,,,,,,,,,,,,,,,,,,103,002,2021_Sep_24_0914,joplin1,2021.2.3,59.83572103779843,
,1 1 0 1 0 0 0 1 1 1,6,categoryA,f,genfile1.csv,0,,,,,,,,,0,1,1,0,0,8,8,31,,,,,,,,,,,,,,,,,,,,,,,,f,1,0.17888283310458064,,,,,,,,,,,,,,,,,,,,,,,103,002,2021_Sep_24_0914,joplin1,2021.2.3,59.83572103779843,
,0 0 0 0 1 1 0 0 0 1,3,categoryB,j,genfile1.csv,0,,,,,,,,,0,1,1,0,0,9,9,44,,,,,,,,,,,,,,,,,,,,,,,,f,0,0.5061307910364121,,,,,,,,,,,,,,,,,,,,,,,103,002,2021_Sep_24_0914,joplin1,2021.2.3,59.83572103779843,
,0 0 0 1 0 0 0 0 0 0,1,categoryB,j,genfile1.csv,0,,,,,,,,,0,1,1,0,0,10,10,52,,,,,,,,,,,,,,,,,,,,,,,,j,1,0.26854741713032126,,,,,,,,,,,,,,,,,,,,,,,103,002,2021_Sep_24_0914,joplin1,2021.2.3,59.83572103779843,
,1 1 0 1 0 0 1 0 1 1,6,categoryA,f,genfile1.csv,1,,,,,,,,,0,1,1,0,0,11,11,4,,,,,,,,,,,,,,,,,,,,,,,,f,1,0.2334157091099769,,,,,,,,,,,,,,,,,,,,,,,103,002,2021_Sep_24_0914,joplin1,2021.2.3,59.83572103779843,
,1 0 0 0 1 1 1 1 1 1,7,categoryA,f,genfile1.csv,0,,,,,,,,,0,1,1,0,0,12,12,26,,,,,,,,,,,,,,,,,,,,,,,,f,1,0.46861100010573864,,,,,,,,,,,,,,,,,,,,,,,103,002,2021_Sep_24_0914,joplin1,2021.2.3,59.83572103779843,
,0 0 1 0 1 1 1 1 1 1,7,categoryA,f,genfile1.csv,0,,,,,,,,,0,1,1,0,0,13,13,28,,,,,,,,,,,,,,,,,,,,,,,,f,1,0.2484987499192357,,,,,,,,,,,,,,,,,,,,,,,103,002,2021_Sep_24_0914,joplin1,2021.2.3,59.83572103779843,
,0 0 1 1 1 1 1 1 0 0,6,categoryA,f,genfile1.csv,1,,,,,,,,,0,1,1,0,0,14,14,8,,,,,,,,,,,,,,,,,,,,,,,,f,1,0.3178653339855373,,,,,,,,,,,,,,,,,,,,,,,103,002,2021_Sep_24_0914,joplin1,2021.2.3,59.83572103779843,
,1 1 1 1 0 1 1 1 1 0,8,categoryA,f,genfile1.csv,0,,,,,,,,,0,1,1,0,0,15,15,25,,,,,,,,,,,,,,,,,,,,,,,,f,1,0.4075882921461016,,,,,,,,,,,,,,,,,,,,,,,103,002,2021_Sep_24_0914,joplin1,2021.2.3,59.83572103779843,
,1 1 0 1 1 1 1 0 1 1,8,categoryA,f,genfile1.csv,1,,,,,,,,,0,1,1,0,0,16,16,7,,,,,,,,,,,,,,,,,,,,,,,,j,0,0.6771988340187818,,,,,,,,,,,,,,,,,,,,,,,103,002,2021_Sep_24_0914,joplin1,2021.2.3,59.83572103779843,
,0 0 0 1 0 0 0 0 0 1,2,categoryB,j,genfile1.csv,0,,,,,,,,,0,1,1,0,0,17,17,47,,,,,,,,,,,,,,,,,,,,,,,,f,0,0.25666629103943706,,,,,,,,,,,,,,,,,,,,,,,103,002,2021_Sep_24_0914,joplin1,2021.2.3,59.83572103779843,
,0 0 1 0 1 1 0 1 0 0,4,categoryB,j,genfile1.csv,1,,,,,,,,,0,1,1,0,0,18,18,11,,,,,,,,,,,,,,,,,,,,,,,,j,1,0.4691724160220474,,,,,,,,,,,,,,,,,,,,,,,103,002,2021_Sep_24_0914,joplin1,2021.2.3,59.83572103779843,
,1 1 1 0 0 0 0 1 1 1,6,categoryA,f,genfile1.csv,1,,,,,,,,,0,1,1,0,0,19,19,5,,,,,,,,,,,,,,,,,,,,,,,,j,0,1.0892968338448554,,,,,,,,,,,,,,,,,,,,,,,103,002,2021_Sep_24_0914,joplin1,2021.2.3,59.83572103779843,
,0 1 0 0 0 0 0 0 1 0,2,categoryB,j,genfile1.csv,1,,,,,,,,,0,1,1,0,0,20,20,10,,,,,,,,,,,,,,,,,,,,,,,,j,1,0.6917991659138352,,,,,,,,,,,,,,,,,,,,,,,103,002,2021_Sep_24_0914,joplin1,2021.2.3,59.83572103779843,
,0 0 0 0 1 0 1 0 0 1,3,categoryB,j,genfile1.csv,0,,,,,,,,,0,1,1,0,0,21,21,42,,,,,,,,,,,,,,,,,,,,,,,,j,1,0.17592249996960163,,,,,,,,,,,,,,,,,,,,,,,103,002,2021_Sep_24_0914,joplin1,2021.2.3,59.83572103779843,
,1 1 1 1 1 0 1 1 1 1,9,categoryA,f,genfile1.csv,0,,,,,,,,,0,1,1,0,0,22,22,17,,,,,,,,,,,,,,,,,,,,,,,,f,1,0.32619066699407995,,,,,,,,,,,,,,,,,,,,,,,103,002,2021_Sep_24_0914,joplin1,2021.2.3,59.83572103779843,
,0 1 1 0 1 1 0 1 1 0,6,categoryA,f,genfile1.csv,0,,,,,,,,,0,1,1,0,0,23,23,33,,,,,,,,,,,,,,,,,,,,,,,,j,0,0.376316666835919,,,,,,,,,,,,,,,,,,,,,,,103,002,2021_Sep_24_0914,joplin1,2021.2.3,59.83572103779843,
,1 1 0 0 1 1 0 1 0 1,6,categoryA,f,genfile1.csv,0,,,,,,,,,0,1,1,0,0,24,24,35,,,,,,,,,,,,,,,,,,,,,,,,f,1,0.46067991689778864,,,,,,,,,,,,,,,,,,,,,,,103,002,2021_Sep_24_0914,joplin1,2021.2.3,59.83572103779843,
,0 0 0 1 1 1 1 0 0 0,4,categoryB,j,genfile1.csv,1,,,,,,,,,0,1,1,0,0,25,25,12,,,,,,,,,,,,,,,,,,,,,,,,j,1,0.8572916670236737,,,,,,,,,,,,,,,,,,,,,,,103,002,2021_Sep_24_0914,joplin1,2021.2.3,59.83572103779843,
,0 1 1 1 0 1 1 1 1 1,8,categoryA,f,genfile1.csv,0,,,,,,,,,0,1,1,0,0,26,26,22,,,,,,,,,,,,,,,,,,,,,,,,f,1,0.22192670800723135,,,,,,,,,,,,,,,,,,,,,,,103,002,2021_Sep_24_0914,joplin1,2021.2.3,59.83572103779843,
,1 0 0 1 1 1 0 0 0 0,4,categoryB,j,genfile1.csv,0,,,,,,,,,0,1,1,0,0,27,27,37,,,,,,,,,,,,,,,,,,,,,,,,j,1,0.5132206659764051,,,,,,,,,,,,,,,,,,,,,,,103,002,2021_Sep_24_0914,joplin1,2021.2.3,59.83572103779843,
,1 1 1 1 0 1 1 1 0 1,8,categoryA,f,genfile1.csv,0,,,,,,,,,0,1,1,0,0,28,28,21,,,,,,,,,,,,,,,,,,,,,,,,f,1,0.3868012500461191,,,,,,,,,,,,,,,,,,,,,,,103,002,2021_Sep_24_0914,joplin1,2021.2.3,59.83572103779843,
,1 1 1 1 1 1 1 1 1 1,10,categoryA,f,genfile1.csv,0,,,,,,,,,0,1,1,0,0,29,29,1,,,,,,,,,,,,,,,,,,,,,,,,f,1,0.26637087506242096,,,,,,,,,,,,,,,,,,,,,,,103,002,2021_Sep_24_0914,joplin1,2021.2.3,59.83572103779843,
,1 1 0 0 0 0 0 0 1 1,4,categoryB,j,genfile1.csv,1,,,,,,,,,0,1,1,0,0,30,30,15,,,,,,,,,,,,,,,,,,,,,,,,j,1,0.231219416949898,,,,,,,,,,,,,,,,,,,,,,,103,002,2021_Sep_24_0914,joplin1,2021.2.3,59.83572103779843,
,1 0 1 1 1 1 1 1 0 1,8,categoryA,f,genfile1.csv,1,,,,,,,,,0,1,1,0,0,31,31,3,,,,,,,,,,,,,,,,,,,,,,,,f,1,0.2853755410760641,,,,,,,,,,,,,,,,,,,,,,,103,002,2021_Sep_24_0914,joplin1,2021.2.3,59.83572103779843,
,1 1 1 0 1 1 1 0 0 0,6,categoryA,f,genfile1.csv,0,,,,,,,,,0,1,1,0,0,32,32,34,,,,,,,,,,,,,,,,,,,,,,,,j,0,0.6151125831529498,,,,,,,,,,,,,,,,,,,,,,,103,002,2021_Sep_24_0914,joplin1,2021.2.3,59.83572103779843,
,0 1 1 1 0 1 0 0 0 0,4,categoryB,j,genfile1.csv,0,,,,,,,,,0,1,1,0,0,33,33,36,,,,,,,,,,,,,,,,,,,,,,,,f,0,0.2687632499728352,,,,,,,,,,,,,,,,,,,,,,,103,002,2021_Sep_24_0914,joplin1,2021.2.3,59.83572103779843,
,0 0 0 0 0 0 0 0 0 0,0,categoryB,j,genfile1.csv,0,,,,,,,,,0,1,1,0,0,34,34,0,,,,,,,,,,,,,,,,,,,,,,,,j,1,0.28205491695553064,,,,,,,,,,,,,,,,,,,,,,,103,002,2021_Sep_24_0914,joplin1,2021.2.3,59.83572103779843,
,0 0 1 0 0 0 0 0 0 1,2,categoryB,j,genfile1.csv,0,,,,,,,,,0,1,1,0,0,35,35,48,,,,,,,,,,,,,,,,,,,,,,,,f,0,0.38994599995203316,,,,,,,,,,,,,,,,,,,,,,,103,002,2021_Sep_24_0914,joplin1,2021.2.3,59.83572103779843,
,0 1 1 0 1 0 1 0 0 0,4,categoryB,j,genfile1.csv,0,,,,,,,,,0,1,1,0,0,36,36,39,,,,,,,,,,,,,,,,,,,,,,,,j,1,0.6431006249040365,,,,,,,,,,,,,,,,,,,,,,,103,002,2021_Sep_24_0914,joplin1,2021.2.3,59.83572103779843,
,1 1 0 1 1 1 0 1 0 1,7,categoryA,f,genfile1.csv,0,,,,,,,,,0,1,1,0,0,37,37,29,,,,,,,,,,,,,,,,,,,,,,,,f,1,0.39203087496571243,,,,,,,,,,,,,,,,,,,,,,,103,002,2021_Sep_24_0914,joplin1,2021.2.3,59.83572103779843,
,1 1 1 1 1 1 0 1 1 1,9,categoryA,f,genfile1.csv,0,,,,,,,,,0,1,1,0,0,38,38,19,,,,,,,,,,,,,,,,,,,,,,,,f,1,0.3661017909180373,,,,,,,,,,,,,,,,,,,,,,,103,002,2021_Sep_24_0914,joplin1,2021.2.3,59.83572103779843,
,0 0 0 1 1 0 0 0 0 0,2,categoryB,j,genfile1.csv,0,,,,,,,,,0,1,1,0,0,39,39,50,,,,,,,,,,,,,,,,,,,,,,,,j,1,0.32612266717478633,,,,,,,,,,,,,,,,,,,,,,,103,002,2021_Sep_24_0914,joplin1,2021.2.3,59.83572103779843,
,1 1 1 0 0 1 0 1 1 1,7,categoryA,f,genfile1.csv,0,,,,,,,,,0,1,1,0,0,40,40,27,,,,,,,,,,,,,,,,,,,,,,,,f,1,0.9514740838203579,,,,,,,,,,,,,,,,,,,,,,,103,002,2021_Sep_24_0914,joplin1,2021.2.3,59.83572103779843,
,1 1 0 1 1 0 0 1 1 1,7,categoryA,f,genfile1.csv,0,,,,,,,,,0,1,1,0,0,41,41,30,,,,,,,,,,,,,,,,,,,,,,,,f,1,0.25539262499660254,,,,,,,,,,,,,,,,,,,,,,,103,002,2021_Sep_24_0914,joplin1,2021.2.3,59.83572103779843,
,0 0 0 0 0 0 0 1 0 0,1,categoryB,j,genfile1.csv,0,,,,,,,,,0,1,1,0,0,42,42,51,,,,,,,,,,,,,,,,,,,,,,,,j,1,1.067360833985731,,,,,,,,,,,,,,,,,,,,,,,103,002,2021_Sep_24_0914,joplin1,2021.2.3,59.83572103779843,
,0 0 1 0 1 1 1 0 0 0,4,categoryB,j,genfile1.csv,0,,,,,,,,,0,1,1,0,0,43,43,38,,,,,,,,,,,,,,,,,,,,,,,,j,1,0.494043790968135,,,,,,,,,,,,,,,,,,,,,,,103,002,2021_Sep_24_0914,joplin1,2021.2.3,59.83572103779843,
,0 1 1 1 1 1 0 1 1 1,8,categoryA,f,genfile1.csv,0,,,,,,,,,0,1,1,0,0,44,44,23,,,,,,,,,,,,,,,,,,,,,,,,f,1,0.36139050009660423,,,,,,,,,,,,,,,,,,,,,,,103,002,2021_Sep_24_0914,joplin1,2021.2.3,59.83572103779843,
,1 1 0 1 1 1 0 1 1 1,8,categoryA,f,genfile1.csv,0,,,,,,,,,0,1,1,0,0,45,45,24,,,,,,,,,,,,,,,,,,,,,,,,f,1,0.3124452498741448,,,,,,,,,,,,,,,,,,,,,,,103,002,2021_Sep_24_0914,joplin1,2021.2.3,59.83572103779843,
,0 0 0 0 0 0 0 0 0 1,1,categoryB,j,genfile1.csv,0,,,,,,,,,0,1,1,0,0,46,46,53,,,,,,,,,,,,,,,,,,,,,,,,j,1,0.4906603330746293,,,,,,,,,,,,,,,,,,,,,,,103,002,2021_Sep_24_0914,joplin1,2021.2.3,59.83572103779843,
,1 1 1 1 1 1 1 1 0 1,9,categoryA,f,genfile1.csv,0,,,,,,,,,0,1,1,0,0,47,47,20,,,,,,,,,,,,,,,,,,,,,,,,f,1,0.30874558398500085,,,,,,,,,,,,,,,,,,,,,,,103,002,2021_Sep_24_0914,joplin1,2021.2.3,59.83572103779843,
,0 0 0 0 0 1 0 0 1 1,3,categoryB,j,genfile1.csv,0,,,,,,,,,0,1,1,0,0,48,48,45,,,,,,,,,,,,,,,,,,,,,,,,f,0,0.27911883289925754,,,,,,,,,,,,,,,,,,,,,,,103,002,2021_Sep_24_0914,joplin1,2021.2.3,59.83572103779843,
,0 0 0 1 0 0 1 0 0 0,2,categoryB,j,genfile1.csv,1,,,,,,,,,0,1,1,0,0,49,49,13,,,,,,,,,,,,,,,,,,,,,,,,j,1,0.3311015828512609,,,,,,,,,,,,,,,,,,,,,,,103,002,2021_Sep_24_0914,joplin1,2021.2.3,59.83572103779843,
,0 1 0 0 0 1 0 0 1 0,3,categoryB,j,genfile1.csv,0,,,,,,,,,0,1,1,0,0,50,50,41,,,,,,,,,,,,,,,,,,,,,,,,j,1,0.16375670791603625,,,,,,,,,,,,,,,,,,,,,,,103,002,2021_Sep_24_0914,joplin1,2021.2.3,59.83572103779843,
,0 0 0 1 0 0 0 0 1 0,2,categoryB,j,genfile1.csv,0,,,,,,,,,0,1,1,0,0,51,51,49,,,,,,,,,,,,,,,,,,,,,,,,j,1,0.24410270899534225,,,,,,,,,,,,,,,,,,,,,,,103,002,2021_Sep_24_0914,joplin1,2021.2.3,59.83572103779843,
,1 0 0 1 1 0 1 1 1 0,6,categoryA,f,genfile1.csv,0,,,,,,,,,0,1,1,0,0,52,52,32,,,,,,,,,,,,,,,,,,,,,,,,j,0,0.24809620808809996,,,,,,,,,,,,,,,,,,,,,,,103,002,2021_Sep_24_0914,joplin1,2021.2.3,59.83572103779843,
,0 1 1 0 0 1 0 0 0 1,4,categoryB,j,genfile1.csv,0,,,,,,,,,0,1,1,0,0,53,53,40,,,,,,,,,,,,,,,,,,,,,,,,f,0,0.31629591598175466,,,,,,,,,,,,,,,,,,,,,,,103,002,2021_Sep_24_0914,joplin1,2021.2.3,59.83572103779843,
,0 0 0 0 0 1 0 0 0 0,1,categoryB,j,genfile1.csv,0,,,,,,,,,0,1,1,0,0,54,54,55,,,,,,,,,,,,,,,,,,,,,,,,j,1,0.1355010410770774,,,,,,,,,,,,,,,,,,,,,,,103,002,2021_Sep_24_0914,joplin1,2021.2.3,59.83572103779843,
,1 1 1 1 1 1 1 1 1 0,9,categoryA,f,genfile1.csv,0,,,,,,,,,0,1,1,0,0,55,55,18,,,,,,,,,,,,,,,,,,,,,,,,j,0,0.24033091589808464,,,,,,,,,,,,,,,,,,,,,,,103,002,2021_Sep_24_0914,joplin1,2021.2.3,59.83572103779843,
,,,,,genfile1.csv,,,,,,,,,,0,1,1,0,,,,,,,,,,,,,,,,,,space,2.011859457939863,,,,,,,,,,,,,,,,,,,,,,,,,,,,,,,,,,103,002,2021_Sep_24_0914,joplin1,2021.2.3,59.83572103779843,
,,,,,,,,,,,,,,,,,,,,,,,,,,,,,,,,,,,,,,,,,,,,,,,,,space,4.626784375170246,,,,,,,,,,,,,,,,,,,,,103,002,2021_Sep_24_0914,joplin1,2021.2.3,59.83572103779843,
,,,,,,,,,,,,,,,,,,,,,,,,,,,,,,,,,,,,,,,,,,,,,,,,,,,return,12.225754832848907,,,,,,,,,,,,,,,,,,,103,002,2021_Sep_24_0914,joplin1,2021.2.3,59.83572103779843,
,,,,,,,,,,,,,,,,,,,,,,,,,,,,,,,,,,,,,,,,,,,,,,,,,,,,,0.7,radio,0.3,Are you Hispanic/Latino?,0,None,None,no,4.850379250012338,,,,,,,,,,103,002,2021_Sep_24_0914,joplin1,2021.2.3,59.83572103779843,
,,,,,,,,,,,,,,,,,,,,,,,,,,,,,,,,,,,,,,,,,,,,,,,,,,,,,0.7,radio,0.3,Are you an American Indian or Alaska Native?,1,None,None,no,7.3711650827899575,,,,,,,,,,103,002,2021_Sep_24_0914,joplin1,2021.2.3,59.83572103779843,
,,,,,,,,,,,,,,,,,,,,,,,,,,,,,,,,,,,,,,,,,,,,,,,,,,,,,0.7,radio,0.3,Are you Asian?,2,None,None,None,None,,,,,,,,,,103,002,2021_Sep_24_0914,joplin1,2021.2.3,59.83572103779843,
,,,,,,,,,,,,,,,,,,,,,,,,,,,,,,,,,,,,,,,,,,,,,,,,,,,,,0.7,radio,0.3,Are you Black or African American?,3,None,None,None,None,,,,,,,,,,103,002,2021_Sep_24_0914,joplin1,2021.2.3,59.83572103779843,
,,,,,,,,,,,,,,,,,,,,,,,,,,,,,,,,,,,,,,,,,,,,,,,,,,,,,0.7,radio,0.3,Are you a Native Hawaiian or other Pacific Islander?,4,None,None,None,None,,,,,,,,,,103,002,2021_Sep_24_0914,joplin1,2021.2.3,59.83572103779843,
,,,,,,,,,,,,,,,,,,,,,,,,,,,,,,,,,,,,,,,,,,,,,,,,,,,,,0.7,radio,0.3,Are you White?,5,None,None,None,None,,,,,,,,,,103,002,2021_Sep_24_0914,joplin1,2021.2.3,59.83572103779843,
,,,,,,,,,,,,,,,,,,,,,,,,,,,,,,,,,,,,,,,,,,,,,,,,,,,,,0.85,radio,0.3,"Do you have any history of neurological issues such as stroke, head injury or a neurodegenerative disorder?",6,None,None,None,None,,,,,,,,,,103,002,2021_Sep_24_0914,joplin1,2021.2.3,59.83572103779843,
,,,,,,,,,,,,,,,,,,,,,,,,,,,,,,,,,,,,,,,,,,,,,,,,,,,,,,,,,,,,,,return,8.616878832923248,,,,,,,,103,002,2021_Sep_24_0914,joplin1,2021.2.3,59.83572103779843,
,,,,,,,,,,,,,,,,,,,,,,,,,,,,,,,,,,,,,,,,,,,,,,,,,,,,,,,,,,,,,,,,return,4.789301374927163,,,,,,103,002,2021_Sep_24_0914,joplin1,2021.2.3,59.83572103779843,
,,,,,,,,,,,,,,,,,,,,,,,,,,,,,,,,,,,,,,,,,,,,,,,,,,,,,,,,,,,,,,,,,,non binary,20,y,2.181832625064999,,103,002,2021_Sep_24_0914,joplin1,2021.2.3,59.83572103779843,
,,,,,,,,,,,,,,,,,,,,,,,,,,,,,,,,,,,,,,,,,,,,,,,,,,,,,,,,,,,,,,,,,,,,,,0,,,,,,,
