train_set,stim_id,sums_feat,category,correct_key,gen_file,train_item,train_runs.thisRepN,train_runs.thisTrialN,train_runs.thisN,train_runs.thisIndex,train_trials.thisRepN,train_trials.thisTrialN,train_trials.thisN,train_trials.thisIndex,test_runs.thisRepN,test_runs.thisTrialN,test_runs.thisN,test_runs.thisIndex,test_trials.thisRepN,test_trials.thisTrialN,test_trials.thisN,test_trials.thisIndex,welcome_key.keys,welcome_key.rt,welcome_key.started,welcome_key.stopped,train_inst1_key.keys,train_inst1_key.rt,train_inst2_key.keys,train_inst2_key.rt,train_begin_key.keys,train_begin_key.rt,train_key.keys,train_key.corr,train_key.rt,break_key.keys,break_key.rt,key_resp.keys,key_resp.rt,test_inst1_key.keys,test_inst1_key.rt,test_inst2_key.keys,test_inst2_key.rt,test_begin_key.keys,test_begin_key.rt,test_key.keys,test_key.corr,test_key.rt,test_end_key.keys,demo_inst1_key.keys,form.questionWidth,form.type,form.respWidth,form.itemText,form.index,form.font,form.markerColor,form.response,form.rt,form_key.keys,demo_inst2_key.keys,gender_string,age_string,demo4_key.keys,typedWord,participant,session,date,expName,psychopyVersion,frameRate,
,,,,,,,,,,,,,,,,,,,,,,,space,28.220038916915655,599.3005486670882,None,,,,,,,,,,,,,,,,,,,,,,,,,,,,,,,,,,,,,,,,103,001,2021_Sep_22_0919,joplin1,2021.2.3,60.09513068660871,
,,,,,,,,,,,,,,,,,,,,,,,,,,,f,9.664409290999174,,,,,,,,,,,,,,,,,,,,,,,,,,,,,,,,,,,,,,103,001,2021_Sep_22_0919,joplin1,2021.2.3,60.09513068660871,
,,,,,,,,,,,,,,,,,,,,,,,,,,,,,space,8.925719541031867,,,,,,,,,,,,,,,,,,,,,,,,,,,,,,,,,,,,103,001,2021_Sep_22_0919,joplin1,2021.2.3,60.09513068660871,
,,,,,,,,,,,,,,,,,,,,,,,,,,,,,,,space,9.798723709071055,,,,,,,,,,,,,,,,,,,,,,,,,,,,,,,,,,103,001,2021_Sep_22_0919,joplin1,2021.2.3,60.09513068660871,
_train_cond.csv,1 1 1 0 0 0 0 1 1 1,6,categoryA,f,,,0,0,0,5,0,0,0,3,,,,,,,,,,,,,,,,,,,f,1,1.116947165923193,,,,,,,,,,,,,,,,,,,,,,,,,,,,,,,103,001,2021_Sep_22_0919,joplin1,2021.2.3,60.09513068660871,
_train_cond.csv,1 1 0 1 1 1 1 0 1 1,8,categoryA,f,,,0,0,0,5,0,1,1,5,,,,,,,,,,,,,,,,,,,f,1,0.43603929085657,,,,,,,,,,,,,,,,,,,,,,,,,,,,,,,103,001,2021_Sep_22_0919,joplin1,2021.2.3,60.09513068660871,
_train_cond.csv,0 0 1 0 1 1 0 1 0 0,4,categoryB,j,,,0,0,0,5,0,2,2,9,,,,,,,,,,,,,,,,,,,j,1,0.4867400829680264,,,,,,,,,,,,,,,,,,,,,,,,,,,,,,,103,001,2021_Sep_22_0919,joplin1,2021.2.3,60.09513068660871,
_train_cond.csv,0 0 1 0 0 0 0 1 0 0,2,categoryB,j,,,0,0,0,5,0,3,3,12,,,,,,,,,,,,,,,,,,,j,1,0.5041814998257905,,,,,,,,,,,,,,,,,,,,,,,,,,,,,,,103,001,2021_Sep_22_0919,joplin1,2021.2.3,60.09513068660871,
_train_cond.csv,0 0 0 1 0 0 1 0 0 0,2,categoryB,j,,,0,0,0,5,0,4,4,11,,,,,,,,,,,,,,,,,,,j,1,0.4472199999727309,,,,,,,,,,,,,,,,,,,,,,,,,,,,,,,103,001,2021_Sep_22_0919,joplin1,2021.2.3,60.09513068660871,
_train_cond.csv,1 0 0 0 0 0 0 0 0 1,2,categoryB,j,,,0,0,0,5,0,5,5,7,,,,,,,,,,,,,,,,,,,f,0,0.4731164579279721,,,,,,,,,,,,,,,,,,,,,,,,,,,,,,,103,001,2021_Sep_22_0919,joplin1,2021.2.3,60.09513068660871,
_train_cond.csv,1 1 0 0 0 0 0 0 1 1,4,categoryB,j,,,0,0,0,5,0,6,6,13,,,,,,,,,,,,,,,,,,,f,0,0.49341229209676385,,,,,,,,,,,,,,,,,,,,,,,,,,,,,,,103,001,2021_Sep_22_0919,joplin1,2021.2.3,60.09513068660871,
_train_cond.csv,1 1 0 1 0 0 1 0 1 1,6,categoryA,f,,,0,0,0,5,0,7,7,2,,,,,,,,,,,,,,,,,,,j,0,0.12563958298414946,,,,,,,,,,,,,,,,,,,,,,,,,,,,,,,103,001,2021_Sep_22_0919,joplin1,2021.2.3,60.09513068660871,
_train_cond.csv,1 1 1 0 1 1 0 1 1 1,8,categoryA,f,,,0,0,0,5,0,8,8,4,,,,,,,,,,,,,,,,,,,j,0,0.42713316692970693,,,,,,,,,,,,,,,,,,,,,,,,,,,,,,,103,001,2021_Sep_22_0919,joplin1,2021.2.3,60.09513068660871,
_train_cond.csv,1 0 1 1 1 1 1 1 0 1,8,categoryA,f,,,0,0,0,5,0,9,9,1,,,,,,,,,,,,,,,,,,,f,1,0.4388789590448141,,,,,,,,,,,,,,,,,,,,,,,,,,,,,,,103,001,2021_Sep_22_0919,joplin1,2021.2.3,60.09513068660871,
_train_cond.csv,0 0 0 1 1 1 1 0 0 0,4,categoryB,j,,,0,0,0,5,0,10,10,10,,,,,,,,,,,,,,,,,,,f,0,0.32897754199802876,,,,,,,,,,,,,,,,,,,,,,,,,,,,,,,103,001,2021_Sep_22_0919,joplin1,2021.2.3,60.09513068660871,
_train_cond.csv,0 1 1 1 1 1 1 1 1 0,8,categoryA,f,,,0,0,0,5,0,11,11,0,,,,,,,,,,,,,,,,,,,f,1,0.3999709999188781,,,,,,,,,,,,,,,,,,,,,,,,,,,,,,,103,001,2021_Sep_22_0919,joplin1,2021.2.3,60.09513068660871,
_train_cond.csv,0 1 0 0 0 0 0 0 1 0,2,categoryB,j,,,0,0,0,5,0,12,12,8,,,,,,,,,,,,,,,,,,,f,0,0.3329237918369472,,,,,,,,,,,,,,,,,,,,,,,,,,,,,,,103,001,2021_Sep_22_0919,joplin1,2021.2.3,60.09513068660871,
_train_cond.csv,0 0 1 1 1 1 1 1 0 0,6,categoryA,f,,,0,0,0,5,0,13,13,6,,,,,,,,,,,,,,,,,,,j,0,0.3484461670741439,,,,,,,,,,,,,,,,,,,,,,,,,,,,,,,103,001,2021_Sep_22_0919,joplin1,2021.2.3,60.09513068660871,
_train_cond.csv,1 1 0 1 1 1 1 0 1 1,8,categoryA,f,,,0,0,0,5,1,0,14,5,,,,,,,,,,,,,,,,,,,f,1,0.13694691681303084,,,,,,,,,,,,,,,,,,,,,,,,,,,,,,,103,001,2021_Sep_22_0919,joplin1,2021.2.3,60.09513068660871,
_train_cond.csv,0 0 0 1 0 0 1 0 0 0,2,categoryB,j,,,0,0,0,5,1,1,15,11,,,,,,,,,,,,,,,,,,,j,1,0.3040150839369744,,,,,,,,,,,,,,,,,,,,,,,,,,,,,,,103,001,2021_Sep_22_0919,joplin1,2021.2.3,60.09513068660871,
_train_cond.csv,0 1 0 0 0 0 0 0 1 0,2,categoryB,j,,,0,0,0,5,1,2,16,8,,,,,,,,,,,,,,,,,,,j,1,0.312488374998793,,,,,,,,,,,,,,,,,,,,,,,,,,,,,,,103,001,2021_Sep_22_0919,joplin1,2021.2.3,60.09513068660871,
_train_cond.csv,0 0 1 1 1 1 1 1 0 0,6,categoryA,f,,,0,0,0,5,1,3,17,6,,,,,,,,,,,,,,,,,,,f,1,0.2827604168560356,,,,,,,,,,,,,,,,,,,,,,,,,,,,,,,103,001,2021_Sep_22_0919,joplin1,2021.2.3,60.09513068660871,
_train_cond.csv,0 0 0 1 1 1 1 0 0 0,4,categoryB,j,,,0,0,0,5,1,4,18,10,,,,,,,,,,,,,,,,,,,f,0,0.02153412508778274,,,,,,,,,,,,,,,,,,,,,,,,,,,,,,,103,001,2021_Sep_22_0919,joplin1,2021.2.3,60.09513068660871,
_train_cond.csv,1 1 1 0 1 1 0 1 1 1,8,categoryA,f,,,0,0,0,5,1,5,19,4,,,,,,,,,,,,,,,,,,,f,1,0.33658875012770295,,,,,,,,,,,,,,,,,,,,,,,,,,,,,,,103,001,2021_Sep_22_0919,joplin1,2021.2.3,60.09513068660871,
_train_cond.csv,1 0 1 1 1 1 1 1 0 1,8,categoryA,f,,,0,0,0,5,1,6,20,1,,,,,,,,,,,,,,,,,,,f,1,0.3203251250088215,,,,,,,,,,,,,,,,,,,,,,,,,,,,,,,103,001,2021_Sep_22_0919,joplin1,2021.2.3,60.09513068660871,
_train_cond.csv,1 1 0 0 0 0 0 0 1 1,4,categoryB,j,,,0,0,0,5,1,7,21,13,,,,,,,,,,,,,,,,,,,j,1,0.3211563751101494,,,,,,,,,,,,,,,,,,,,,,,,,,,,,,,103,001,2021_Sep_22_0919,joplin1,2021.2.3,60.09513068660871,
_train_cond.csv,0 1 1 1 1 1 1 1 1 0,8,categoryA,f,,,0,0,0,5,1,8,22,0,,,,,,,,,,,,,,,,,,,f,1,0.30520762503147125,,,,,,,,,,,,,,,,,,,,,,,,,,,,,,,103,001,2021_Sep_22_0919,joplin1,2021.2.3,60.09513068660871,
_train_cond.csv,1 1 0 1 0 0 1 0 1 1,6,categoryA,f,,,0,0,0,5,1,9,23,2,,,,,,,,,,,,,,,,,,,j,0,0.2901004159357399,,,,,,,,,,,,,,,,,,,,,,,,,,,,,,,103,001,2021_Sep_22_0919,joplin1,2021.2.3,60.09513068660871,
_train_cond.csv,1 0 0 0 0 0 0 0 0 1,2,categoryB,j,,,0,0,0,5,1,10,24,7,,,,,,,,,,,,,,,,,,,j,1,0.29966983385384083,,,,,,,,,,,,,,,,,,,,,,,,,,,,,,,103,001,2021_Sep_22_0919,joplin1,2021.2.3,60.09513068660871,
_train_cond.csv,0 0 1 0 1 1 0 1 0 0,4,categoryB,j,,,0,0,0,5,1,11,25,9,,,,,,,,,,,,,,,,,,,f,0,0.31716375006362796,,,,,,,,,,,,,,,,,,,,,,,,,,,,,,,103,001,2021_Sep_22_0919,joplin1,2021.2.3,60.09513068660871,
_train_cond.csv,1 1 1 0 0 0 0 1 1 1,6,categoryA,f,,,0,0,0,5,1,12,26,3,,,,,,,,,,,,,,,,,,,f,1,0.38965799985453486,,,,,,,,,,,,,,,,,,,,,,,,,,,,,,,103,001,2021_Sep_22_0919,joplin1,2021.2.3,60.09513068660871,
_train_cond.csv,0 0 1 0 0 0 0 1 0 0,2,categoryB,j,,,0,0,0,5,1,13,27,12,,,,,,,,,,,,,,,,,,,f,0,0.3387965001165867,,,,,,,,,,,,,,,,,,,,,,,,,,,,,,,103,001,2021_Sep_22_0919,joplin1,2021.2.3,60.09513068660871,
_train_cond.csv,1 1 0 1 0 0 1 0 1 1,6,categoryA,f,,,0,0,0,5,2,0,28,2,,,,,,,,,,,,,,,,,,,j,0,0.3465796250384301,,,,,,,,,,,,,,,,,,,,,,,,,,,,,,,103,001,2021_Sep_22_0919,joplin1,2021.2.3,60.09513068660871,
_train_cond.csv,1 1 1 0 1 1 0 1 1 1,8,categoryA,f,,,0,0,0,5,2,1,29,4,,,,,,,,,,,,,,,,,,,f,1,0.30703991698101163,,,,,,,,,,,,,,,,,,,,,,,,,,,,,,,103,001,2021_Sep_22_0919,joplin1,2021.2.3,60.09513068660871,
_train_cond.csv,0 0 1 0 0 0 0 1 0 0,2,categoryB,j,,,0,0,0,5,2,2,30,12,,,,,,,,,,,,,,,,,,,f,0,0.2532123331911862,,,,,,,,,,,,,,,,,,,,,,,,,,,,,,,103,001,2021_Sep_22_0919,joplin1,2021.2.3,60.09513068660871,
_train_cond.csv,0 1 1 1 1 1 1 1 1 0,8,categoryA,f,,,0,0,0,5,2,3,31,0,,,,,,,,,,,,,,,,,,,f,1,0.3196629579178989,,,,,,,,,,,,,,,,,,,,,,,,,,,,,,,103,001,2021_Sep_22_0919,joplin1,2021.2.3,60.09513068660871,
_train_cond.csv,1 1 0 1 1 1 1 0 1 1,8,categoryA,f,,,0,0,0,5,2,4,32,5,,,,,,,,,,,,,,,,,,,f,1,0.28834608290344477,,,,,,,,,,,,,,,,,,,,,,,,,,,,,,,103,001,2021_Sep_22_0919,joplin1,2021.2.3,60.09513068660871,
_train_cond.csv,0 1 0 0 0 0 0 0 1 0,2,categoryB,j,,,0,0,0,5,2,5,33,8,,,,,,,,,,,,,,,,,,,j,1,0.29753458383493125,,,,,,,,,,,,,,,,,,,,,,,,,,,,,,,103,001,2021_Sep_22_0919,joplin1,2021.2.3,60.09513068660871,
_train_cond.csv,0 0 1 0 1 1 0 1 0 0,4,categoryB,j,,,0,0,0,5,2,6,34,9,,,,,,,,,,,,,,,,,,,f,0,0.3153335410170257,,,,,,,,,,,,,,,,,,,,,,,,,,,,,,,103,001,2021_Sep_22_0919,joplin1,2021.2.3,60.09513068660871,
_train_cond.csv,0 0 0 1 1 1 1 0 0 0,4,categoryB,j,,,0,0,0,5,2,7,35,10,,,,,,,,,,,,,,,,,,,j,1,0.3159980420023203,,,,,,,,,,,,,,,,,,,,,,,,,,,,,,,103,001,2021_Sep_22_0919,joplin1,2021.2.3,60.09513068660871,
_train_cond.csv,0 0 0 1 0 0 1 0 0 0,2,categoryB,j,,,0,0,0,5,2,8,36,11,,,,,,,,,,,,,,,,,,,j,1,0.3404602080117911,,,,,,,,,,,,,,,,,,,,,,,,,,,,,,,103,001,2021_Sep_22_0919,joplin1,2021.2.3,60.09513068660871,
_train_cond.csv,1 0 0 0 0 0 0 0 0 1,2,categoryB,j,,,0,0,0,5,2,9,37,7,,,,,,,,,,,,,,,,,,,j,1,0.3495465419255197,,,,,,,,,,,,,,,,,,,,,,,,,,,,,,,103,001,2021_Sep_22_0919,joplin1,2021.2.3,60.09513068660871,
_train_cond.csv,1 1 0 0 0 0 0 0 1 1,4,categoryB,j,,,0,0,0,5,2,10,38,13,,,,,,,,,,,,,,,,,,,f,0,0.3334383340552449,,,,,,,,,,,,,,,,,,,,,,,,,,,,,,,103,001,2021_Sep_22_0919,joplin1,2021.2.3,60.09513068660871,
_train_cond.csv,1 0 1 1 1 1 1 1 0 1,8,categoryA,f,,,0,0,0,5,2,11,39,1,,,,,,,,,,,,,,,,,,,f,1,0.31811483297497034,,,,,,,,,,,,,,,,,,,,,,,,,,,,,,,103,001,2021_Sep_22_0919,joplin1,2021.2.3,60.09513068660871,
_train_cond.csv,1 1 1 0 0 0 0 1 1 1,6,categoryA,f,,,0,0,0,5,2,12,40,3,,,,,,,,,,,,,,,,,,,j,0,0.2397311250679195,,,,,,,,,,,,,,,,,,,,,,,,,,,,,,,103,001,2021_Sep_22_0919,joplin1,2021.2.3,60.09513068660871,
_train_cond.csv,0 0 1 1 1 1 1 1 0 0,6,categoryA,f,,,0,0,0,5,2,13,41,6,,,,,,,,,,,,,,,,,,,f,1,0.36212791688740253,,,,,,,,,,,,,,,,,,,,,,,,,,,,,,,103,001,2021_Sep_22_0919,joplin1,2021.2.3,60.09513068660871,
_train_cond.csv,,,,,,,0,0,0,5,,,,,,,,,,,,,,,,,,,,,,,,,,space,2.5527952921111137,,,,,,,,,,,,,,,,,,,,,,,,,,,,,103,001,2021_Sep_22_0919,joplin1,2021.2.3,60.09513068660871,
_train_cond.csv,0 0 0 1 1 1 1 0 0 0,4,categoryB,j,,,0,1,1,6,0,0,0,10,,,,,,,,,,,,,,,,,,,f,0,0.3907326250337064,,,,,,,,,,,,,,,,,,,,,,,,,,,,,,,103,001,2021_Sep_22_0919,joplin1,2021.2.3,60.09513068660871,
_train_cond.csv,0 1 1 1 1 1 1 1 1 0,8,categoryA,f,,,0,1,1,6,0,1,1,0,,,,,,,,,,,,,,,,,,,f,1,0.4508930828887969,,,,,,,,,,,,,,,,,,,,,,,,,,,,,,,103,001,2021_Sep_22_0919,joplin1,2021.2.3,60.09513068660871,
_train_cond.csv,1 0 0 0 0 0 0 0 0 1,2,categoryB,j,,,0,1,1,6,0,2,2,7,,,,,,,,,,,,,,,,,,,j,1,0.3502269999589771,,,,,,,,,,,,,,,,,,,,,,,,,,,,,,,103,001,2021_Sep_22_0919,joplin1,2021.2.3,60.09513068660871,
_train_cond.csv,0 0 0 1 0 0 1 0 0 0,2,categoryB,j,,,0,1,1,6,0,3,3,11,,,,,,,,,,,,,,,,,,,j,1,0.27019112510606647,,,,,,,,,,,,,,,,,,,,,,,,,,,,,,,103,001,2021_Sep_22_0919,joplin1,2021.2.3,60.09513068660871,
_train_cond.csv,0 0 1 1 1 1 1 1 0 0,6,categoryA,f,,,0,1,1,6,0,4,4,6,,,,,,,,,,,,,,,,,,,f,1,0.2570331250317395,,,,,,,,,,,,,,,,,,,,,,,,,,,,,,,103,001,2021_Sep_22_0919,joplin1,2021.2.3,60.09513068660871,
_train_cond.csv,1 1 1 0 1 1 0 1 1 1,8,categoryA,f,,,0,1,1,6,0,5,5,4,,,,,,,,,,,,,,,,,,,f,1,0.2360661660786718,,,,,,,,,,,,,,,,,,,,,,,,,,,,,,,103,001,2021_Sep_22_0919,joplin1,2021.2.3,60.09513068660871,
_train_cond.csv,0 1 0 0 0 0 0 0 1 0,2,categoryB,j,,,0,1,1,6,0,6,6,8,,,,,,,,,,,,,,,,,,,j,1,0.28808212489821017,,,,,,,,,,,,,,,,,,,,,,,,,,,,,,,103,001,2021_Sep_22_0919,joplin1,2021.2.3,60.09513068660871,
_train_cond.csv,0 0 1 0 0 0 0 1 0 0,2,categoryB,j,,,0,1,1,6,0,7,7,12,,,,,,,,,,,,,,,,,,,j,1,0.27322304085828364,,,,,,,,,,,,,,,,,,,,,,,,,,,,,,,103,001,2021_Sep_22_0919,joplin1,2021.2.3,60.09513068660871,
_train_cond.csv,0 0 1 0 1 1 0 1 0 0,4,categoryB,j,,,0,1,1,6,0,8,8,9,,,,,,,,,,,,,,,,,,,f,0,0.3959430418908596,,,,,,,,,,,,,,,,,,,,,,,,,,,,,,,103,001,2021_Sep_22_0919,joplin1,2021.2.3,60.09513068660871,
_train_cond.csv,1 1 0 1 1 1 1 0 1 1,8,categoryA,f,,,0,1,1,6,0,9,9,5,,,,,,,,,,,,,,,,,,,f,1,0.25750829093158245,,,,,,,,,,,,,,,,,,,,,,,,,,,,,,,103,001,2021_Sep_22_0919,joplin1,2021.2.3,60.09513068660871,
_train_cond.csv,1 1 0 0 0 0 0 0 1 1,4,categoryB,j,,,0,1,1,6,0,10,10,13,,,,,,,,,,,,,,,,,,,j,1,0.29382562497630715,,,,,,,,,,,,,,,,,,,,,,,,,,,,,,,103,001,2021_Sep_22_0919,joplin1,2021.2.3,60.09513068660871,
_train_cond.csv,1 1 1 0 0 0 0 1 1 1,6,categoryA,f,,,0,1,1,6,0,11,11,3,,,,,,,,,,,,,,,,,,,j,0,0.30085691693238914,,,,,,,,,,,,,,,,,,,,,,,,,,,,,,,103,001,2021_Sep_22_0919,joplin1,2021.2.3,60.09513068660871,
_train_cond.csv,1 1 0 1 0 0 1 0 1 1,6,categoryA,f,,,0,1,1,6,0,12,12,2,,,,,,,,,,,,,,,,,,,f,1,0.494287374895066,,,,,,,,,,,,,,,,,,,,,,,,,,,,,,,103,001,2021_Sep_22_0919,joplin1,2021.2.3,60.09513068660871,
_train_cond.csv,1 0 1 1 1 1 1 1 0 1,8,categoryA,f,,,0,1,1,6,0,13,13,1,,,,,,,,,,,,,,,,,,,f,1,0.2887178750243038,,,,,,,,,,,,,,,,,,,,,,,,,,,,,,,103,001,2021_Sep_22_0919,joplin1,2021.2.3,60.09513068660871,
_train_cond.csv,0 0 1 0 1 1 0 1 0 0,4,categoryB,j,,,0,1,1,6,1,0,14,9,,,,,,,,,,,,,,,,,,,f,0,0.4733628749381751,,,,,,,,,,,,,,,,,,,,,,,,,,,,,,,103,001,2021_Sep_22_0919,joplin1,2021.2.3,60.09513068660871,
_train_cond.csv,1 1 1 0 0 0 0 1 1 1,6,categoryA,f,,,0,1,1,6,1,1,15,3,,,,,,,,,,,,,,,,,,,f,1,0.30794091592542827,,,,,,,,,,,,,,,,,,,,,,,,,,,,,,,103,001,2021_Sep_22_0919,joplin1,2021.2.3,60.09513068660871,
_train_cond.csv,1 0 0 0 0 0 0 0 0 1,2,categoryB,j,,,0,1,1,6,1,2,16,7,,,,,,,,,,,,,,,,,,,f,0,0.37278204201720655,,,,,,,,,,,,,,,,,,,,,,,,,,,,,,,103,001,2021_Sep_22_0919,joplin1,2021.2.3,60.09513068660871,
_train_cond.csv,0 0 0 1 1 1 1 0 0 0,4,categoryB,j,,,0,1,1,6,1,3,17,10,,,,,,,,,,,,,,,,,,,f,0,0.3719213749282062,,,,,,,,,,,,,,,,,,,,,,,,,,,,,,,103,001,2021_Sep_22_0919,joplin1,2021.2.3,60.09513068660871,
_train_cond.csv,1 0 1 1 1 1 1 1 0 1,8,categoryA,f,,,0,1,1,6,1,4,18,1,,,,,,,,,,,,,,,,,,,f,1,0.5067125409841537,,,,,,,,,,,,,,,,,,,,,,,,,,,,,,,103,001,2021_Sep_22_0919,joplin1,2021.2.3,60.09513068660871,
_train_cond.csv,1 1 0 0 0 0 0 0 1 1,4,categoryB,j,,,0,1,1,6,1,5,19,13,,,,,,,,,,,,,,,,,,,j,1,0.5247733748983592,,,,,,,,,,,,,,,,,,,,,,,,,,,,,,,103,001,2021_Sep_22_0919,joplin1,2021.2.3,60.09513068660871,
_train_cond.csv,0 0 0 1 0 0 1 0 0 0,2,categoryB,j,,,0,1,1,6,1,6,20,11,,,,,,,,,,,,,,,,,,,j,1,0.49163233302533627,,,,,,,,,,,,,,,,,,,,,,,,,,,,,,,103,001,2021_Sep_22_0919,joplin1,2021.2.3,60.09513068660871,
_train_cond.csv,1 1 0 1 1 1 1 0 1 1,8,categoryA,f,,,0,1,1,6,1,7,21,5,,,,,,,,,,,,,,,,,,,f,1,0.365575292147696,,,,,,,,,,,,,,,,,,,,,,,,,,,,,,,103,001,2021_Sep_22_0919,joplin1,2021.2.3,60.09513068660871,
_train_cond.csv,1 1 0 1 0 0 1 0 1 1,6,categoryA,f,,,0,1,1,6,1,8,22,2,,,,,,,,,,,,,,,,,,,j,0,0.29334691585972905,,,,,,,,,,,,,,,,,,,,,,,,,,,,,,,103,001,2021_Sep_22_0919,joplin1,2021.2.3,60.09513068660871,
_train_cond.csv,0 0 1 0 0 0 0 1 0 0,2,categoryB,j,,,0,1,1,6,1,9,23,12,,,,,,,,,,,,,,,,,,,j,1,0.3426692911889404,,,,,,,,,,,,,,,,,,,,,,,,,,,,,,,103,001,2021_Sep_22_0919,joplin1,2021.2.3,60.09513068660871,
_train_cond.csv,1 1 1 0 1 1 0 1 1 1,8,categoryA,f,,,0,1,1,6,1,10,24,4,,,,,,,,,,,,,,,,,,,f,1,0.3420975001063198,,,,,,,,,,,,,,,,,,,,,,,,,,,,,,,103,001,2021_Sep_22_0919,joplin1,2021.2.3,60.09513068660871,
_train_cond.csv,0 1 0 0 0 0 0 0 1 0,2,categoryB,j,,,0,1,1,6,1,11,25,8,,,,,,,,,,,,,,,,,,,j,1,0.3326877090148628,,,,,,,,,,,,,,,,,,,,,,,,,,,,,,,103,001,2021_Sep_22_0919,joplin1,2021.2.3,60.09513068660871,
_train_cond.csv,0 1 1 1 1 1 1 1 1 0,8,categoryA,f,,,0,1,1,6,1,12,26,0,,,,,,,,,,,,,,,,,,,j,0,0.39578549982979894,,,,,,,,,,,,,,,,,,,,,,,,,,,,,,,103,001,2021_Sep_22_0919,joplin1,2021.2.3,60.09513068660871,
_train_cond.csv,0 0 1 1 1 1 1 1 0 0,6,categoryA,f,,,0,1,1,6,1,13,27,6,,,,,,,,,,,,,,,,,,,f,1,0.36132212495431304,,,,,,,,,,,,,,,,,,,,,,,,,,,,,,,103,001,2021_Sep_22_0919,joplin1,2021.2.3,60.09513068660871,
_train_cond.csv,1 0 0 0 0 0 0 0 0 1,2,categoryB,j,,,0,1,1,6,2,0,28,7,,,,,,,,,,,,,,,,,,,f,0,0.3417140000965446,,,,,,,,,,,,,,,,,,,,,,,,,,,,,,,103,001,2021_Sep_22_0919,joplin1,2021.2.3,60.09513068660871,
_train_cond.csv,1 1 0 0 0 0 0 0 1 1,4,categoryB,j,,,0,1,1,6,2,1,29,13,,,,,,,,,,,,,,,,,,,j,1,0.37399704195559025,,,,,,,,,,,,,,,,,,,,,,,,,,,,,,,103,001,2021_Sep_22_0919,joplin1,2021.2.3,60.09513068660871,
_train_cond.csv,1 1 1 0 0 0 0 1 1 1,6,categoryA,f,,,0,1,1,6,2,2,30,3,,,,,,,,,,,,,,,,,,,j,0,0.3150735830422491,,,,,,,,,,,,,,,,,,,,,,,,,,,,,,,103,001,2021_Sep_22_0919,joplin1,2021.2.3,60.09513068660871,
_train_cond.csv,0 1 0 0 0 0 0 0 1 0,2,categoryB,j,,,0,1,1,6,2,3,31,8,,,,,,,,,,,,,,,,,,,j,1,0.354098416864872,,,,,,,,,,,,,,,,,,,,,,,,,,,,,,,103,001,2021_Sep_22_0919,joplin1,2021.2.3,60.09513068660871,
_train_cond.csv,1 1 1 0 1 1 0 1 1 1,8,categoryA,f,,,0,1,1,6,2,4,32,4,,,,,,,,,,,,,,,,,,,f,1,0.4011162498500198,,,,,,,,,,,,,,,,,,,,,,,,,,,,,,,103,001,2021_Sep_22_0919,joplin1,2021.2.3,60.09513068660871,
_train_cond.csv,1 1 0 1 1 1 1 0 1 1,8,categoryA,f,,,0,1,1,6,2,5,33,5,,,,,,,,,,,,,,,,,,,f,1,0.45493645896203816,,,,,,,,,,,,,,,,,,,,,,,,,,,,,,,103,001,2021_Sep_22_0919,joplin1,2021.2.3,60.09513068660871,
_train_cond.csv,0 0 0 1 1 1 1 0 0 0,4,categoryB,j,,,0,1,1,6,2,6,34,10,,,,,,,,,,,,,,,,,,,j,1,0.2980860839597881,,,,,,,,,,,,,,,,,,,,,,,,,,,,,,,103,001,2021_Sep_22_0919,joplin1,2021.2.3,60.09513068660871,
_train_cond.csv,0 0 1 0 0 0 0 1 0 0,2,categoryB,j,,,0,1,1,6,2,7,35,12,,,,,,,,,,,,,,,,,,,j,1,0.2989968340843916,,,,,,,,,,,,,,,,,,,,,,,,,,,,,,,103,001,2021_Sep_22_0919,joplin1,2021.2.3,60.09513068660871,
_train_cond.csv,0 0 0 1 0 0 1 0 0 0,2,categoryB,j,,,0,1,1,6,2,8,36,11,,,,,,,,,,,,,,,,,,,j,1,0.34204183309338987,,,,,,,,,,,,,,,,,,,,,,,,,,,,,,,103,001,2021_Sep_22_0919,joplin1,2021.2.3,60.09513068660871,
_train_cond.csv,1 1 0 1 0 0 1 0 1 1,6,categoryA,f,,,0,1,1,6,2,9,37,2,,,,,,,,,,,,,,,,,,,f,1,0.36627487489022315,,,,,,,,,,,,,,,,,,,,,,,,,,,,,,,103,001,2021_Sep_22_0919,joplin1,2021.2.3,60.09513068660871,
_train_cond.csv,0 0 1 1 1 1 1 1 0 0,6,categoryA,f,,,0,1,1,6,2,10,38,6,,,,,,,,,,,,,,,,,,,j,0,0.396828583907336,,,,,,,,,,,,,,,,,,,,,,,,,,,,,,,103,001,2021_Sep_22_0919,joplin1,2021.2.3,60.09513068660871,
_train_cond.csv,1 0 1 1 1 1 1 1 0 1,8,categoryA,f,,,0,1,1,6,2,11,39,1,,,,,,,,,,,,,,,,,,,f,1,0.5158969161566347,,,,,,,,,,,,,,,,,,,,,,,,,,,,,,,103,001,2021_Sep_22_0919,joplin1,2021.2.3,60.09513068660871,
_train_cond.csv,0 1 1 1 1 1 1 1 1 0,8,categoryA,f,,,0,1,1,6,2,12,40,0,,,,,,,,,,,,,,,,,,,f,1,0.3545939999166876,,,,,,,,,,,,,,,,,,,,,,,,,,,,,,,103,001,2021_Sep_22_0919,joplin1,2021.2.3,60.09513068660871,
_train_cond.csv,0 0 1 0 1 1 0 1 0 0,4,categoryB,j,,,0,1,1,6,2,13,41,9,,,,,,,,,,,,,,,,,,,f,0,0.33067024988122284,,,,,,,,,,,,,,,,,,,,,,,,,,,,,,,103,001,2021_Sep_22_0919,joplin1,2021.2.3,60.09513068660871,
_train_cond.csv,,,,,,,0,1,1,6,,,,,,,,,,,,,,,,,,,,,,,,,,space,3.0432635000906885,,,,,,,,,,,,,,,,,,,,,,,,,,,,,103,001,2021_Sep_22_0919,joplin1,2021.2.3,60.09513068660871,
_train_cond.csv,1 0 0 0 0 0 0 0 0 1,2,categoryB,j,,,0,2,2,0,0,0,0,7,,,,,,,,,,,,,,,,,,,j,1,0.41399549995549023,,,,,,,,,,,,,,,,,,,,,,,,,,,,,,,103,001,2021_Sep_22_0919,joplin1,2021.2.3,60.09513068660871,
_train_cond.csv,0 0 1 0 1 1 0 1 0 0,4,categoryB,j,,,0,2,2,0,0,1,1,9,,,,,,,,,,,,,,,,,,,f,0,0.34697058401070535,,,,,,,,,,,,,,,,,,,,,,,,,,,,,,,103,001,2021_Sep_22_0919,joplin1,2021.2.3,60.09513068660871,
_train_cond.csv,0 1 0 0 0 0 0 0 1 0,2,categoryB,j,,,0,2,2,0,0,2,2,8,,,,,,,,,,,,,,,,,,,j,1,0.46680645807646215,,,,,,,,,,,,,,,,,,,,,,,,,,,,,,,103,001,2021_Sep_22_0919,joplin1,2021.2.3,60.09513068660871,
_train_cond.csv,0 0 0 1 1 1 1 0 0 0,4,categoryB,j,,,0,2,2,0,0,3,3,10,,,,,,,,,,,,,,,,,,,j,1,0.4538892498239875,,,,,,,,,,,,,,,,,,,,,,,,,,,,,,,103,001,2021_Sep_22_0919,joplin1,2021.2.3,60.09513068660871,
_train_cond.csv,0 0 1 1 1 1 1 1 0 0,6,categoryA,f,,,0,2,2,0,0,4,4,6,,,,,,,,,,,,,,,,,,,j,0,0.42551858304068446,,,,,,,,,,,,,,,,,,,,,,,,,,,,,,,103,001,2021_Sep_22_0919,joplin1,2021.2.3,60.09513068660871,
_train_cond.csv,1 1 0 1 1 1 1 0 1 1,8,categoryA,f,,,0,2,2,0,0,5,5,5,,,,,,,,,,,,,,,,,,,f,1,0.3420949170831591,,,,,,,,,,,,,,,,,,,,,,,,,,,,,,,103,001,2021_Sep_22_0919,joplin1,2021.2.3,60.09513068660871,
_train_cond.csv,0 0 0 1 0 0 1 0 0 0,2,categoryB,j,,,0,2,2,0,0,6,6,11,,,,,,,,,,,,,,,,,,,f,0,0.39711174997501075,,,,,,,,,,,,,,,,,,,,,,,,,,,,,,,103,001,2021_Sep_22_0919,joplin1,2021.2.3,60.09513068660871,
_train_cond.csv,0 1 1 1 1 1 1 1 1 0,8,categoryA,f,,,0,2,2,0,0,7,7,0,,,,,,,,,,,,,,,,,,,j,0,0.41094224993139505,,,,,,,,,,,,,,,,,,,,,,,,,,,,,,,103,001,2021_Sep_22_0919,joplin1,2021.2.3,60.09513068660871,
_train_cond.csv,1 1 1 0 1 1 0 1 1 1,8,categoryA,f,,,0,2,2,0,0,8,8,4,,,,,,,,,,,,,,,,,,,f,1,0.4154637500178069,,,,,,,,,,,,,,,,,,,,,,,,,,,,,,,103,001,2021_Sep_22_0919,joplin1,2021.2.3,60.09513068660871,
_train_cond.csv,0 0 1 0 0 0 0 1 0 0,2,categoryB,j,,,0,2,2,0,0,9,9,12,,,,,,,,,,,,,,,,,,,j,1,0.30620637512765825,,,,,,,,,,,,,,,,,,,,,,,,,,,,,,,103,001,2021_Sep_22_0919,joplin1,2021.2.3,60.09513068660871,
_train_cond.csv,1 1 0 0 0 0 0 0 1 1,4,categoryB,j,,,0,2,2,0,0,10,10,13,,,,,,,,,,,,,,,,,,,j,1,0.3804259579628706,,,,,,,,,,,,,,,,,,,,,,,,,,,,,,,103,001,2021_Sep_22_0919,joplin1,2021.2.3,60.09513068660871,
_train_cond.csv,1 1 0 1 0 0 1 0 1 1,6,categoryA,f,,,0,2,2,0,0,11,11,2,,,,,,,,,,,,,,,,,,,j,0,0.6265604998916388,,,,,,,,,,,,,,,,,,,,,,,,,,,,,,,103,001,2021_Sep_22_0919,joplin1,2021.2.3,60.09513068660871,
_train_cond.csv,1 1 1 0 0 0 0 1 1 1,6,categoryA,f,,,0,2,2,0,0,12,12,3,,,,,,,,,,,,,,,,,,,j,0,0.311445124913007,,,,,,,,,,,,,,,,,,,,,,,,,,,,,,,103,001,2021_Sep_22_0919,joplin1,2021.2.3,60.09513068660871,
_train_cond.csv,1 0 1 1 1 1 1 1 0 1,8,categoryA,f,,,0,2,2,0,0,13,13,1,,,,,,,,,,,,,,,,,,,f,1,0.31301166699267924,,,,,,,,,,,,,,,,,,,,,,,,,,,,,,,103,001,2021_Sep_22_0919,joplin1,2021.2.3,60.09513068660871,
_train_cond.csv,1 1 0 0 0 0 0 0 1 1,4,categoryB,j,,,0,2,2,0,1,0,14,13,,,,,,,,,,,,,,,,,,,f,0,0.3549101671669632,,,,,,,,,,,,,,,,,,,,,,,,,,,,,,,103,001,2021_Sep_22_0919,joplin1,2021.2.3,60.09513068660871,
_train_cond.csv,1 1 0 1 0 0 1 0 1 1,6,categoryA,f,,,0,2,2,0,1,1,15,2,,,,,,,,,,,,,,,,,,,j,0,0.41800399986095726,,,,,,,,,,,,,,,,,,,,,,,,,,,,,,,103,001,2021_Sep_22_0919,joplin1,2021.2.3,60.09513068660871,
_train_cond.csv,0 1 1 1 1 1 1 1 1 0,8,categoryA,f,,,0,2,2,0,1,2,16,0,,,,,,,,,,,,,,,,,,,f,1,0.41475112503394485,,,,,,,,,,,,,,,,,,,,,,,,,,,,,,,103,001,2021_Sep_22_0919,joplin1,2021.2.3,60.09513068660871,
_train_cond.csv,0 0 1 1 1 1 1 1 0 0,6,categoryA,f,,,0,2,2,0,1,3,17,6,,,,,,,,,,,,,,,,,,,f,1,0.4426168331410736,,,,,,,,,,,,,,,,,,,,,,,,,,,,,,,103,001,2021_Sep_22_0919,joplin1,2021.2.3,60.09513068660871,
_train_cond.csv,0 0 0 1 0 0 1 0 0 0,2,categoryB,j,,,0,2,2,0,1,4,18,11,,,,,,,,,,,,,,,,,,,f,0,0.3915223330259323,,,,,,,,,,,,,,,,,,,,,,,,,,,,,,,103,001,2021_Sep_22_0919,joplin1,2021.2.3,60.09513068660871,
_train_cond.csv,0 0 1 0 0 0 0 1 0 0,2,categoryB,j,,,0,2,2,0,1,5,19,12,,,,,,,,,,,,,,,,,,,j,1,0.3007367090322077,,,,,,,,,,,,,,,,,,,,,,,,,,,,,,,103,001,2021_Sep_22_0919,joplin1,2021.2.3,60.09513068660871,
_train_cond.csv,1 0 1 1 1 1 1 1 0 1,8,categoryA,f,,,0,2,2,0,1,6,20,1,,,,,,,,,,,,,,,,,,,f,1,0.43071737489663064,,,,,,,,,,,,,,,,,,,,,,,,,,,,,,,103,001,2021_Sep_22_0919,joplin1,2021.2.3,60.09513068660871,
_train_cond.csv,1 1 0 1 1 1 1 0 1 1,8,categoryA,f,,,0,2,2,0,1,7,21,5,,,,,,,,,,,,,,,,,,,f,1,0.4266449580900371,,,,,,,,,,,,,,,,,,,,,,,,,,,,,,,103,001,2021_Sep_22_0919,joplin1,2021.2.3,60.09513068660871,
_train_cond.csv,0 0 1 0 1 1 0 1 0 0,4,categoryB,j,,,0,2,2,0,1,8,22,9,,,,,,,,,,,,,,,,,,,j,1,0.6233436251059175,,,,,,,,,,,,,,,,,,,,,,,,,,,,,,,103,001,2021_Sep_22_0919,joplin1,2021.2.3,60.09513068660871,
_train_cond.csv,1 0 0 0 0 0 0 0 0 1,2,categoryB,j,,,0,2,2,0,1,9,23,7,,,,,,,,,,,,,,,,,,,f,0,0.41224587499164045,,,,,,,,,,,,,,,,,,,,,,,,,,,,,,,103,001,2021_Sep_22_0919,joplin1,2021.2.3,60.09513068660871,
_train_cond.csv,1 1 1 0 0 0 0 1 1 1,6,categoryA,f,,,0,2,2,0,1,10,24,3,,,,,,,,,,,,,,,,,,,f,1,0.3927087909542024,,,,,,,,,,,,,,,,,,,,,,,,,,,,,,,103,001,2021_Sep_22_0919,joplin1,2021.2.3,60.09513068660871,
_train_cond.csv,1 1 1 0 1 1 0 1 1 1,8,categoryA,f,,,0,2,2,0,1,11,25,4,,,,,,,,,,,,,,,,,,,j,0,0.37319562514312565,,,,,,,,,,,,,,,,,,,,,,,,,,,,,,,103,001,2021_Sep_22_0919,joplin1,2021.2.3,60.09513068660871,
_train_cond.csv,0 0 0 1 1 1 1 0 0 0,4,categoryB,j,,,0,2,2,0,1,12,26,10,,,,,,,,,,,,,,,,,,,f,0,0.5470657499972731,,,,,,,,,,,,,,,,,,,,,,,,,,,,,,,103,001,2021_Sep_22_0919,joplin1,2021.2.3,60.09513068660871,
_train_cond.csv,0 1 0 0 0 0 0 0 1 0,2,categoryB,j,,,0,2,2,0,1,13,27,8,,,,,,,,,,,,,,,,,,,j,1,0.5632835421711206,,,,,,,,,,,,,,,,,,,,,,,,,,,,,,,103,001,2021_Sep_22_0919,joplin1,2021.2.3,60.09513068660871,
_train_cond.csv,0 1 0 0 0 0 0 0 1 0,2,categoryB,j,,,0,2,2,0,2,0,28,8,,,,,,,,,,,,,,,,,,,j,1,0.2979787078220397,,,,,,,,,,,,,,,,,,,,,,,,,,,,,,,103,001,2021_Sep_22_0919,joplin1,2021.2.3,60.09513068660871,
_train_cond.csv,0 0 1 0 1 1 0 1 0 0,4,categoryB,j,,,0,2,2,0,2,1,29,9,,,,,,,,,,,,,,,,,,,j,1,0.35583100002259016,,,,,,,,,,,,,,,,,,,,,,,,,,,,,,,103,001,2021_Sep_22_0919,joplin1,2021.2.3,60.09513068660871,
_train_cond.csv,1 1 0 1 0 0 1 0 1 1,6,categoryA,f,,,0,2,2,0,2,2,30,2,,,,,,,,,,,,,,,,,,,f,1,0.30816791695542634,,,,,,,,,,,,,,,,,,,,,,,,,,,,,,,103,001,2021_Sep_22_0919,joplin1,2021.2.3,60.09513068660871,
_train_cond.csv,0 0 0 1 1 1 1 0 0 0,4,categoryB,j,,,0,2,2,0,2,3,31,10,,,,,,,,,,,,,,,,,,,j,1,0.380748167168349,,,,,,,,,,,,,,,,,,,,,,,,,,,,,,,103,001,2021_Sep_22_0919,joplin1,2021.2.3,60.09513068660871,
_train_cond.csv,0 0 0 1 0 0 1 0 0 0,2,categoryB,j,,,0,2,2,0,2,4,32,11,,,,,,,,,,,,,,,,,,,j,1,0.29815145884640515,,,,,,,,,,,,,,,,,,,,,,,,,,,,,,,103,001,2021_Sep_22_0919,joplin1,2021.2.3,60.09513068660871,
_train_cond.csv,0 0 1 1 1 1 1 1 0 0,6,categoryA,f,,,0,2,2,0,2,5,33,6,,,,,,,,,,,,,,,,,,,j,0,0.24461550009436905,,,,,,,,,,,,,,,,,,,,,,,,,,,,,,,103,001,2021_Sep_22_0919,joplin1,2021.2.3,60.09513068660871,
_train_cond.csv,1 1 1 0 1 1 0 1 1 1,8,categoryA,f,,,0,2,2,0,2,6,34,4,,,,,,,,,,,,,,,,,,,f,1,0.39071054104715586,,,,,,,,,,,,,,,,,,,,,,,,,,,,,,,103,001,2021_Sep_22_0919,joplin1,2021.2.3,60.09513068660871,
_train_cond.csv,1 0 0 0 0 0 0 0 0 1,2,categoryB,j,,,0,2,2,0,2,7,35,7,,,,,,,,,,,,,,,,,,,f,0,0.26870445790700614,,,,,,,,,,,,,,,,,,,,,,,,,,,,,,,103,001,2021_Sep_22_0919,joplin1,2021.2.3,60.09513068660871,
_train_cond.csv,1 1 0 0 0 0 0 0 1 1,4,categoryB,j,,,0,2,2,0,2,8,36,13,,,,,,,,,,,,,,,,,,,f,0,0.25453266710974276,,,,,,,,,,,,,,,,,,,,,,,,,,,,,,,103,001,2021_Sep_22_0919,joplin1,2021.2.3,60.09513068660871,
_train_cond.csv,1 1 0 1 1 1 1 0 1 1,8,categoryA,f,,,0,2,2,0,2,9,37,5,,,,,,,,,,,,,,,,,,,j,0,0.46729600010439754,,,,,,,,,,,,,,,,,,,,,,,,,,,,,,,103,001,2021_Sep_22_0919,joplin1,2021.2.3,60.09513068660871,
_train_cond.csv,0 0 1 0 0 0 0 1 0 0,2,categoryB,j,,,0,2,2,0,2,10,38,12,,,,,,,,,,,,,,,,,,,j,1,0.43800274981185794,,,,,,,,,,,,,,,,,,,,,,,,,,,,,,,103,001,2021_Sep_22_0919,joplin1,2021.2.3,60.09513068660871,
_train_cond.csv,0 1 1 1 1 1 1 1 1 0,8,categoryA,f,,,0,2,2,0,2,11,39,0,,,,,,,,,,,,,,,,,,,j,0,0.38653362495824695,,,,,,,,,,,,,,,,,,,,,,,,,,,,,,,103,001,2021_Sep_22_0919,joplin1,2021.2.3,60.09513068660871,
_train_cond.csv,1 1 1 0 0 0 0 1 1 1,6,categoryA,f,,,0,2,2,0,2,12,40,3,,,,,,,,,,,,,,,,,,,j,0,0.29542666720226407,,,,,,,,,,,,,,,,,,,,,,,,,,,,,,,103,001,2021_Sep_22_0919,joplin1,2021.2.3,60.09513068660871,
_train_cond.csv,1 0 1 1 1 1 1 1 0 1,8,categoryA,f,,,0,2,2,0,2,13,41,1,,,,,,,,,,,,,,,,,,,j,0,0.5460472498089075,,,,,,,,,,,,,,,,,,,,,,,,,,,,,,,103,001,2021_Sep_22_0919,joplin1,2021.2.3,60.09513068660871,
_train_cond.csv,,,,,,,0,2,2,0,,,,,,,,,,,,,,,,,,,,,,,,,,space,17.45047500007786,,,,,,,,,,,,,,,,,,,,,,,,,,,,,103,001,2021_Sep_22_0919,joplin1,2021.2.3,60.09513068660871,
_train_cond.csv,1 1 0 0 0 0 0 0 1 1,4,categoryB,j,,,0,3,3,1,0,0,0,13,,,,,,,,,,,,,,,,,,,j,1,0.45206537493504584,,,,,,,,,,,,,,,,,,,,,,,,,,,,,,,103,001,2021_Sep_22_0919,joplin1,2021.2.3,60.09513068660871,
_train_cond.csv,1 1 1 0 0 0 0 1 1 1,6,categoryA,f,,,0,3,3,1,0,1,1,3,,,,,,,,,,,,,,,,,,,j,0,0.2788682081736624,,,,,,,,,,,,,,,,,,,,,,,,,,,,,,,103,001,2021_Sep_22_0919,joplin1,2021.2.3,60.09513068660871,
_train_cond.csv,0 1 1 1 1 1 1 1 1 0,8,categoryA,f,,,0,3,3,1,0,2,2,0,,,,,,,,,,,,,,,,,,,j,0,0.5204270831309259,,,,,,,,,,,,,,,,,,,,,,,,,,,,,,,103,001,2021_Sep_22_0919,joplin1,2021.2.3,60.09513068660871,
_train_cond.csv,1 1 1 0 1 1 0 1 1 1,8,categoryA,f,,,0,3,3,1,0,3,3,4,,,,,,,,,,,,,,,,,,,f,1,0.48922245809808373,,,,,,,,,,,,,,,,,,,,,,,,,,,,,,,103,001,2021_Sep_22_0919,joplin1,2021.2.3,60.09513068660871,
_train_cond.csv,1 1 0 1 0 0 1 0 1 1,6,categoryA,f,,,0,3,3,1,0,4,4,2,,,,,,,,,,,,,,,,,,,f,1,0.6592994998209178,,,,,,,,,,,,,,,,,,,,,,,,,,,,,,,103,001,2021_Sep_22_0919,joplin1,2021.2.3,60.09513068660871,
_train_cond.csv,1 1 0 1 1 1 1 0 1 1,8,categoryA,f,,,0,3,3,1,0,5,5,5,,,,,,,,,,,,,,,,,,,f,1,0.3485587500035763,,,,,,,,,,,,,,,,,,,,,,,,,,,,,,,103,001,2021_Sep_22_0919,joplin1,2021.2.3,60.09513068660871,
_train_cond.csv,0 0 0 1 0 0 1 0 0 0,2,categoryB,j,,,0,3,3,1,0,6,6,11,,,,,,,,,,,,,,,,,,,j,1,0.3479401250369847,,,,,,,,,,,,,,,,,,,,,,,,,,,,,,,103,001,2021_Sep_22_0919,joplin1,2021.2.3,60.09513068660871,
_train_cond.csv,0 0 1 0 1 1 0 1 0 0,4,categoryB,j,,,0,3,3,1,0,7,7,9,,,,,,,,,,,,,,,,,,,j,1,0.2745965837966651,,,,,,,,,,,,,,,,,,,,,,,,,,,,,,,103,001,2021_Sep_22_0919,joplin1,2021.2.3,60.09513068660871,
_train_cond.csv,0 0 1 1 1 1 1 1 0 0,6,categoryA,f,,,0,3,3,1,0,8,8,6,,,,,,,,,,,,,,,,,,,j,0,0.33492095908150077,,,,,,,,,,,,,,,,,,,,,,,,,,,,,,,103,001,2021_Sep_22_0919,joplin1,2021.2.3,60.09513068660871,
_train_cond.csv,0 1 0 0 0 0 0 0 1 0,2,categoryB,j,,,0,3,3,1,0,9,9,8,,,,,,,,,,,,,,,,,,,j,1,0.5264723328873515,,,,,,,,,,,,,,,,,,,,,,,,,,,,,,,103,001,2021_Sep_22_0919,joplin1,2021.2.3,60.09513068660871,
_train_cond.csv,1 0 1 1 1 1 1 1 0 1,8,categoryA,f,,,0,3,3,1,0,10,10,1,,,,,,,,,,,,,,,,,,,f,1,0.3349356248509139,,,,,,,,,,,,,,,,,,,,,,,,,,,,,,,103,001,2021_Sep_22_0919,joplin1,2021.2.3,60.09513068660871,
_train_cond.csv,0 0 1 0 0 0 0 1 0 0,2,categoryB,j,,,0,3,3,1,0,11,11,12,,,,,,,,,,,,,,,,,,,j,1,0.4228844998870045,,,,,,,,,,,,,,,,,,,,,,,,,,,,,,,103,001,2021_Sep_22_0919,joplin1,2021.2.3,60.09513068660871,
_train_cond.csv,0 0 0 1 1 1 1 0 0 0,4,categoryB,j,,,0,3,3,1,0,12,12,10,,,,,,,,,,,,,,,,,,,j,1,0.32404874986968935,,,,,,,,,,,,,,,,,,,,,,,,,,,,,,,103,001,2021_Sep_22_0919,joplin1,2021.2.3,60.09513068660871,
_train_cond.csv,1 0 0 0 0 0 0 0 0 1,2,categoryB,j,,,0,3,3,1,0,13,13,7,,,,,,,,,,,,,,,,,,,f,0,0.3485593751538545,,,,,,,,,,,,,,,,,,,,,,,,,,,,,,,103,001,2021_Sep_22_0919,joplin1,2021.2.3,60.09513068660871,
_train_cond.csv,0 1 1 1 1 1 1 1 1 0,8,categoryA,f,,,0,3,3,1,1,0,14,0,,,,,,,,,,,,,,,,,,,j,0,0.3557734170462936,,,,,,,,,,,,,,,,,,,,,,,,,,,,,,,103,001,2021_Sep_22_0919,joplin1,2021.2.3,60.09513068660871,
_train_cond.csv,1 0 0 0 0 0 0 0 0 1,2,categoryB,j,,,0,3,3,1,1,1,15,7,,,,,,,,,,,,,,,,,,,j,1,0.32343970821239054,,,,,,,,,,,,,,,,,,,,,,,,,,,,,,,103,001,2021_Sep_22_0919,joplin1,2021.2.3,60.09513068660871,
_train_cond.csv,0 0 1 0 1 1 0 1 0 0,4,categoryB,j,,,0,3,3,1,1,2,16,9,,,,,,,,,,,,,,,,,,,j,1,0.4028125829063356,,,,,,,,,,,,,,,,,,,,,,,,,,,,,,,103,001,2021_Sep_22_0919,joplin1,2021.2.3,60.09513068660871,
_train_cond.csv,1 1 0 1 0 0 1 0 1 1,6,categoryA,f,,,0,3,3,1,1,3,17,2,,,,,,,,,,,,,,,,,,,f,1,0.32932408386841416,,,,,,,,,,,,,,,,,,,,,,,,,,,,,,,103,001,2021_Sep_22_0919,joplin1,2021.2.3,60.09513068660871,
_train_cond.csv,0 1 0 0 0 0 0 0 1 0,2,categoryB,j,,,0,3,3,1,1,4,18,8,,,,,,,,,,,,,,,,,,,j,1,0.29685104195959866,,,,,,,,,,,,,,,,,,,,,,,,,,,,,,,103,001,2021_Sep_22_0919,joplin1,2021.2.3,60.09513068660871,
_train_cond.csv,0 0 1 1 1 1 1 1 0 0,6,categoryA,f,,,0,3,3,1,1,5,19,6,,,,,,,,,,,,,,,,,,,j,0,0.6414699170272797,,,,,,,,,,,,,,,,,,,,,,,,,,,,,,,103,001,2021_Sep_22_0919,joplin1,2021.2.3,60.09513068660871,
_train_cond.csv,0 0 1 0 0 0 0 1 0 0,2,categoryB,j,,,0,3,3,1,1,6,20,12,,,,,,,,,,,,,,,,,,,j,1,0.3008317919448018,,,,,,,,,,,,,,,,,,,,,,,,,,,,,,,103,001,2021_Sep_22_0919,joplin1,2021.2.3,60.09513068660871,
_train_cond.csv,1 1 0 1 1 1 1 0 1 1,8,categoryA,f,,,0,3,3,1,1,7,21,5,,,,,,,,,,,,,,,,,,,f,1,0.39003129210323095,,,,,,,,,,,,,,,,,,,,,,,,,,,,,,,103,001,2021_Sep_22_0919,joplin1,2021.2.3,60.09513068660871,
_train_cond.csv,1 1 1 0 0 0 0 1 1 1,6,categoryA,f,,,0,3,3,1,1,8,22,3,,,,,,,,,,,,,,,,,,,f,1,0.3248300841078162,,,,,,,,,,,,,,,,,,,,,,,,,,,,,,,103,001,2021_Sep_22_0919,joplin1,2021.2.3,60.09513068660871,
_train_cond.csv,1 0 1 1 1 1 1 1 0 1,8,categoryA,f,,,0,3,3,1,1,9,23,1,,,,,,,,,,,,,,,,,,,j,0,0.3168064171914011,,,,,,,,,,,,,,,,,,,,,,,,,,,,,,,103,001,2021_Sep_22_0919,joplin1,2021.2.3,60.09513068660871,
_train_cond.csv,0 0 0 1 0 0 1 0 0 0,2,categoryB,j,,,0,3,3,1,1,10,24,11,,,,,,,,,,,,,,,,,,,j,1,0.350825791945681,,,,,,,,,,,,,,,,,,,,,,,,,,,,,,,103,001,2021_Sep_22_0919,joplin1,2021.2.3,60.09513068660871,
_train_cond.csv,1 1 1 0 1 1 0 1 1 1,8,categoryA,f,,,0,3,3,1,1,11,25,4,,,,,,,,,,,,,,,,,,,f,1,0.36651483294554055,,,,,,,,,,,,,,,,,,,,,,,,,,,,,,,103,001,2021_Sep_22_0919,joplin1,2021.2.3,60.09513068660871,
_train_cond.csv,0 0 0 1 1 1 1 0 0 0,4,categoryB,j,,,0,3,3,1,1,12,26,10,,,,,,,,,,,,,,,,,,,j,1,0.34976570890285075,,,,,,,,,,,,,,,,,,,,,,,,,,,,,,,103,001,2021_Sep_22_0919,joplin1,2021.2.3,60.09513068660871,
_train_cond.csv,1 1 0 0 0 0 0 0 1 1,4,categoryB,j,,,0,3,3,1,1,13,27,13,,,,,,,,,,,,,,,,,,,f,0,0.4054410830140114,,,,,,,,,,,,,,,,,,,,,,,,,,,,,,,103,001,2021_Sep_22_0919,joplin1,2021.2.3,60.09513068660871,
_train_cond.csv,0 1 0 0 0 0 0 0 1 0,2,categoryB,j,,,0,3,3,1,2,0,28,8,,,,,,,,,,,,,,,,,,,j,1,0.3148855830077082,,,,,,,,,,,,,,,,,,,,,,,,,,,,,,,103,001,2021_Sep_22_0919,joplin1,2021.2.3,60.09513068660871,
_train_cond.csv,1 1 0 1 1 1 1 0 1 1,8,categoryA,f,,,0,3,3,1,2,1,29,5,,,,,,,,,,,,,,,,,,,j,0,0.35537395789287984,,,,,,,,,,,,,,,,,,,,,,,,,,,,,,,103,001,2021_Sep_22_0919,joplin1,2021.2.3,60.09513068660871,
_train_cond.csv,0 0 0 1 1 1 1 0 0 0,4,categoryB,j,,,0,3,3,1,2,2,30,10,,,,,,,,,,,,,,,,,,,j,1,0.35382279218174517,,,,,,,,,,,,,,,,,,,,,,,,,,,,,,,103,001,2021_Sep_22_0919,joplin1,2021.2.3,60.09513068660871,
_train_cond.csv,1 0 1 1 1 1 1 1 0 1,8,categoryA,f,,,0,3,3,1,2,3,31,1,,,,,,,,,,,,,,,,,,,j,0,0.3379679589997977,,,,,,,,,,,,,,,,,,,,,,,,,,,,,,,103,001,2021_Sep_22_0919,joplin1,2021.2.3,60.09513068660871,
_train_cond.csv,0 0 0 1 0 0 1 0 0 0,2,categoryB,j,,,0,3,3,1,2,4,32,11,,,,,,,,,,,,,,,,,,,j,1,0.2809488328639418,,,,,,,,,,,,,,,,,,,,,,,,,,,,,,,103,001,2021_Sep_22_0919,joplin1,2021.2.3,60.09513068660871,
_train_cond.csv,1 1 1 0 1 1 0 1 1 1,8,categoryA,f,,,0,3,3,1,2,5,33,4,,,,,,,,,,,,,,,,,,,f,1,0.33237091707997024,,,,,,,,,,,,,,,,,,,,,,,,,,,,,,,103,001,2021_Sep_22_0919,joplin1,2021.2.3,60.09513068660871,
_train_cond.csv,0 0 1 0 0 0 0 1 0 0,2,categoryB,j,,,0,3,3,1,2,6,34,12,,,,,,,,,,,,,,,,,,,j,1,0.38716945820488036,,,,,,,,,,,,,,,,,,,,,,,,,,,,,,,103,001,2021_Sep_22_0919,joplin1,2021.2.3,60.09513068660871,
_train_cond.csv,0 0 1 1 1 1 1 1 0 0,6,categoryA,f,,,0,3,3,1,2,7,35,6,,,,,,,,,,,,,,,,,,,j,0,0.28068004199303687,,,,,,,,,,,,,,,,,,,,,,,,,,,,,,,103,001,2021_Sep_22_0919,joplin1,2021.2.3,60.09513068660871,
_train_cond.csv,1 1 0 0 0 0 0 0 1 1,4,categoryB,j,,,0,3,3,1,2,8,36,13,,,,,,,,,,,,,,,,,,,f,0,0.3716570420656353,,,,,,,,,,,,,,,,,,,,,,,,,,,,,,,103,001,2021_Sep_22_0919,joplin1,2021.2.3,60.09513068660871,
_train_cond.csv,1 1 1 0 0 0 0 1 1 1,6,categoryA,f,,,0,3,3,1,2,9,37,3,,,,,,,,,,,,,,,,,,,j,0,0.30471670790575445,,,,,,,,,,,,,,,,,,,,,,,,,,,,,,,103,001,2021_Sep_22_0919,joplin1,2021.2.3,60.09513068660871,
_train_cond.csv,1 1 0 1 0 0 1 0 1 1,6,categoryA,f,,,0,3,3,1,2,10,38,2,,,,,,,,,,,,,,,,,,,j,0,0.5540183749981225,,,,,,,,,,,,,,,,,,,,,,,,,,,,,,,103,001,2021_Sep_22_0919,joplin1,2021.2.3,60.09513068660871,
_train_cond.csv,0 1 1 1 1 1 1 1 1 0,8,categoryA,f,,,0,3,3,1,2,11,39,0,,,,,,,,,,,,,,,,,,,j,0,0.2953782498370856,,,,,,,,,,,,,,,,,,,,,,,,,,,,,,,103,001,2021_Sep_22_0919,joplin1,2021.2.3,60.09513068660871,
_train_cond.csv,0 0 1 0 1 1 0 1 0 0,4,categoryB,j,,,0,3,3,1,2,12,40,9,,,,,,,,,,,,,,,,,,,j,1,0.31377533287741244,,,,,,,,,,,,,,,,,,,,,,,,,,,,,,,103,001,2021_Sep_22_0919,joplin1,2021.2.3,60.09513068660871,
_train_cond.csv,1 0 0 0 0 0 0 0 0 1,2,categoryB,j,,,0,3,3,1,2,13,41,7,,,,,,,,,,,,,,,,,,,j,1,0.33851491706445813,,,,,,,,,,,,,,,,,,,,,,,,,,,,,,,103,001,2021_Sep_22_0919,joplin1,2021.2.3,60.09513068660871,
_train_cond.csv,,,,,,,0,3,3,1,,,,,,,,,,,,,,,,,,,,,,,,,,space,2.427514832932502,,,,,,,,,,,,,,,,,,,,,,,,,,,,,103,001,2021_Sep_22_0919,joplin1,2021.2.3,60.09513068660871,
_train_cond.csv,1 1 1 0 0 0 0 1 1 1,6,categoryA,f,,,0,4,4,4,0,0,0,3,,,,,,,,,,,,,,,,,,,j,0,0.43919887486845255,,,,,,,,,,,,,,,,,,,,,,,,,,,,,,,103,001,2021_Sep_22_0919,joplin1,2021.2.3,60.09513068660871,
_train_cond.csv,1 0 1 1 1 1 1 1 0 1,8,categoryA,f,,,0,4,4,4,0,1,1,1,,,,,,,,,,,,,,,,,,,j,0,0.44276124984025955,,,,,,,,,,,,,,,,,,,,,,,,,,,,,,,103,001,2021_Sep_22_0919,joplin1,2021.2.3,60.09513068660871,
_train_cond.csv,1 1 0 0 0 0 0 0 1 1,4,categoryB,j,,,0,4,4,4,0,2,2,13,,,,,,,,,,,,,,,,,,,j,1,0.43914183299057186,,,,,,,,,,,,,,,,,,,,,,,,,,,,,,,103,001,2021_Sep_22_0919,joplin1,2021.2.3,60.09513068660871,
_train_cond.csv,0 1 0 0 0 0 0 0 1 0,2,categoryB,j,,,0,4,4,4,0,3,3,8,,,,,,,,,,,,,,,,,,,j,1,0.3221996249631047,,,,,,,,,,,,,,,,,,,,,,,,,,,,,,,103,001,2021_Sep_22_0919,joplin1,2021.2.3,60.09513068660871,
_train_cond.csv,0 0 1 0 0 0 0 1 0 0,2,categoryB,j,,,0,4,4,4,0,4,4,12,,,,,,,,,,,,,,,,,,,j,1,0.3628725418820977,,,,,,,,,,,,,,,,,,,,,,,,,,,,,,,103,001,2021_Sep_22_0919,joplin1,2021.2.3,60.09513068660871,
_train_cond.csv,1 0 0 0 0 0 0 0 0 1,2,categoryB,j,,,0,4,4,4,0,5,5,7,,,,,,,,,,,,,,,,,,,j,1,0.28264599991962314,,,,,,,,,,,,,,,,,,,,,,,,,,,,,,,103,001,2021_Sep_22_0919,joplin1,2021.2.3,60.09513068660871,
_train_cond.csv,1 1 0 1 0 0 1 0 1 1,6,categoryA,f,,,0,4,4,4,0,6,6,2,,,,,,,,,,,,,,,,,,,j,0,0.3574557090178132,,,,,,,,,,,,,,,,,,,,,,,,,,,,,,,103,001,2021_Sep_22_0919,joplin1,2021.2.3,60.09513068660871,
_train_cond.csv,0 0 1 0 1 1 0 1 0 0,4,categoryB,j,,,0,4,4,4,0,7,7,9,,,,,,,,,,,,,,,,,,,j,1,0.3082109580282122,,,,,,,,,,,,,,,,,,,,,,,,,,,,,,,103,001,2021_Sep_22_0919,joplin1,2021.2.3,60.09513068660871,
_train_cond.csv,0 0 0 1 0 0 1 0 0 0,2,categoryB,j,,,0,4,4,4,0,8,8,11,,,,,,,,,,,,,,,,,,,j,1,0.41279641608707607,,,,,,,,,,,,,,,,,,,,,,,,,,,,,,,103,001,2021_Sep_22_0919,joplin1,2021.2.3,60.09513068660871,
_train_cond.csv,0 0 1 1 1 1 1 1 0 0,6,categoryA,f,,,0,4,4,4,0,9,9,6,,,,,,,,,,,,,,,,,,,f,1,0.4743647091090679,,,,,,,,,,,,,,,,,,,,,,,,,,,,,,,103,001,2021_Sep_22_0919,joplin1,2021.2.3,60.09513068660871,
_train_cond.csv,1 1 0 1 1 1 1 0 1 1,8,categoryA,f,,,0,4,4,4,0,10,10,5,,,,,,,,,,,,,,,,,,,f,1,0.388535917038098,,,,,,,,,,,,,,,,,,,,,,,,,,,,,,,103,001,2021_Sep_22_0919,joplin1,2021.2.3,60.09513068660871,
_train_cond.csv,0 0 0 1 1 1 1 0 0 0,4,categoryB,j,,,0,4,4,4,0,11,11,10,,,,,,,,,,,,,,,,,,,j,1,0.3536607089918107,,,,,,,,,,,,,,,,,,,,,,,,,,,,,,,103,001,2021_Sep_22_0919,joplin1,2021.2.3,60.09513068660871,
_train_cond.csv,1 1 1 0 1 1 0 1 1 1,8,categoryA,f,,,0,4,4,4,0,12,12,4,,,,,,,,,,,,,,,,,,,f,1,0.3459214579779655,,,,,,,,,,,,,,,,,,,,,,,,,,,,,,,103,001,2021_Sep_22_0919,joplin1,2021.2.3,60.09513068660871,
_train_cond.csv,0 1 1 1 1 1 1 1 1 0,8,categoryA,f,,,0,4,4,4,0,13,13,0,,,,,,,,,,,,,,,,,,,f,1,0.4168103749398142,,,,,,,,,,,,,,,,,,,,,,,,,,,,,,,103,001,2021_Sep_22_0919,joplin1,2021.2.3,60.09513068660871,
_train_cond.csv,1 0 1 1 1 1 1 1 0 1,8,categoryA,f,,,0,4,4,4,1,0,14,1,,,,,,,,,,,,,,,,,,,f,1,0.5809651669114828,,,,,,,,,,,,,,,,,,,,,,,,,,,,,,,103,001,2021_Sep_22_0919,joplin1,2021.2.3,60.09513068660871,
_train_cond.csv,0 1 1 1 1 1 1 1 1 0,8,categoryA,f,,,0,4,4,4,1,1,15,0,,,,,,,,,,,,,,,,,,,f,1,0.34125570789910853,,,,,,,,,,,,,,,,,,,,,,,,,,,,,,,103,001,2021_Sep_22_0919,joplin1,2021.2.3,60.09513068660871,
_train_cond.csv,1 1 1 0 0 0 0 1 1 1,6,categoryA,f,,,0,4,4,4,1,2,16,3,,,,,,,,,,,,,,,,,,,j,0,0.3565796669572592,,,,,,,,,,,,,,,,,,,,,,,,,,,,,,,103,001,2021_Sep_22_0919,joplin1,2021.2.3,60.09513068660871,
_train_cond.csv,0 0 0 1 0 0 1 0 0 0,2,categoryB,j,,,0,4,4,4,1,3,17,11,,,,,,,,,,,,,,,,,,,j,1,0.33209650008939207,,,,,,,,,,,,,,,,,,,,,,,,,,,,,,,103,001,2021_Sep_22_0919,joplin1,2021.2.3,60.09513068660871,
_train_cond.csv,1 1 0 0 0 0 0 0 1 1,4,categoryB,j,,,0,4,4,4,1,4,18,13,,,,,,,,,,,,,,,,,,,f,0,0.3404142919462174,,,,,,,,,,,,,,,,,,,,,,,,,,,,,,,103,001,2021_Sep_22_0919,joplin1,2021.2.3,60.09513068660871,
_train_cond.csv,1 0 0 0 0 0 0 0 0 1,2,categoryB,j,,,0,4,4,4,1,5,19,7,,,,,,,,,,,,,,,,,,,f,0,0.35601250012405217,,,,,,,,,,,,,,,,,,,,,,,,,,,,,,,103,001,2021_Sep_22_0919,joplin1,2021.2.3,60.09513068660871,
_train_cond.csv,0 1 0 0 0 0 0 0 1 0,2,categoryB,j,,,0,4,4,4,1,6,20,8,,,,,,,,,,,,,,,,,,,j,1,0.2838743331376463,,,,,,,,,,,,,,,,,,,,,,,,,,,,,,,103,001,2021_Sep_22_0919,joplin1,2021.2.3,60.09513068660871,
_train_cond.csv,0 0 0 1 1 1 1 0 0 0,4,categoryB,j,,,0,4,4,4,1,7,21,10,,,,,,,,,,,,,,,,,,,f,0,0.7085362079087645,,,,,,,,,,,,,,,,,,,,,,,,,,,,,,,103,001,2021_Sep_22_0919,joplin1,2021.2.3,60.09513068660871,
_train_cond.csv,0 0 1 1 1 1 1 1 0 0,6,categoryA,f,,,0,4,4,4,1,8,22,6,,,,,,,,,,,,,,,,,,,j,0,0.30076979100704193,,,,,,,,,,,,,,,,,,,,,,,,,,,,,,,103,001,2021_Sep_22_0919,joplin1,2021.2.3,60.09513068660871,
_train_cond.csv,0 0 1 0 1 1 0 1 0 0,4,categoryB,j,,,0,4,4,4,1,9,23,9,,,,,,,,,,,,,,,,,,,f,0,0.3259727081749588,,,,,,,,,,,,,,,,,,,,,,,,,,,,,,,103,001,2021_Sep_22_0919,joplin1,2021.2.3,60.09513068660871,
_train_cond.csv,0 0 1 0 0 0 0 1 0 0,2,categoryB,j,,,0,4,4,4,1,10,24,12,,,,,,,,,,,,,,,,,,,j,1,0.3579672500491142,,,,,,,,,,,,,,,,,,,,,,,,,,,,,,,103,001,2021_Sep_22_0919,joplin1,2021.2.3,60.09513068660871,
_train_cond.csv,1 1 0 1 1 1 1 0 1 1,8,categoryA,f,,,0,4,4,4,1,11,25,5,,,,,,,,,,,,,,,,,,,f,1,0.2614902921486646,,,,,,,,,,,,,,,,,,,,,,,,,,,,,,,103,001,2021_Sep_22_0919,joplin1,2021.2.3,60.09513068660871,
_train_cond.csv,1 1 1 0 1 1 0 1 1 1,8,categoryA,f,,,0,4,4,4,1,12,26,4,,,,,,,,,,,,,,,,,,,f,1,0.29731504200026393,,,,,,,,,,,,,,,,,,,,,,,,,,,,,,,103,001,2021_Sep_22_0919,joplin1,2021.2.3,60.09513068660871,
_train_cond.csv,1 1 0 1 0 0 1 0 1 1,6,categoryA,f,,,0,4,4,4,1,13,27,2,,,,,,,,,,,,,,,,,,,f,1,0.2826065830886364,,,,,,,,,,,,,,,,,,,,,,,,,,,,,,,103,001,2021_Sep_22_0919,joplin1,2021.2.3,60.09513068660871,
_train_cond.csv,1 0 1 1 1 1 1 1 0 1,8,categoryA,f,,,0,4,4,4,2,0,28,1,,,,,,,,,,,,,,,,,,,f,1,0.29381991690024734,,,,,,,,,,,,,,,,,,,,,,,,,,,,,,,103,001,2021_Sep_22_0919,joplin1,2021.2.3,60.09513068660871,
_train_cond.csv,0 0 0 1 0 0 1 0 0 0,2,categoryB,j,,,0,4,4,4,2,1,29,11,,,,,,,,,,,,,,,,,,,j,1,0.3840230421628803,,,,,,,,,,,,,,,,,,,,,,,,,,,,,,,103,001,2021_Sep_22_0919,joplin1,2021.2.3,60.09513068660871,
_train_cond.csv,1 1 1 0 0 0 0 1 1 1,6,categoryA,f,,,0,4,4,4,2,2,30,3,,,,,,,,,,,,,,,,,,,j,0,0.31063437508419156,,,,,,,,,,,,,,,,,,,,,,,,,,,,,,,103,001,2021_Sep_22_0919,joplin1,2021.2.3,60.09513068660871,
_train_cond.csv,0 1 1 1 1 1 1 1 1 0,8,categoryA,f,,,0,4,4,4,2,3,31,0,,,,,,,,,,,,,,,,,,,j,0,0.3511449589859694,,,,,,,,,,,,,,,,,,,,,,,,,,,,,,,103,001,2021_Sep_22_0919,joplin1,2021.2.3,60.09513068660871,
_train_cond.csv,0 0 1 0 0 0 0 1 0 0,2,categoryB,j,,,0,4,4,4,2,4,32,12,,,,,,,,,,,,,,,,,,,j,1,0.3823682500515133,,,,,,,,,,,,,,,,,,,,,,,,,,,,,,,103,001,2021_Sep_22_0919,joplin1,2021.2.3,60.09513068660871,
_train_cond.csv,1 0 0 0 0 0 0 0 0 1,2,categoryB,j,,,0,4,4,4,2,5,33,7,,,,,,,,,,,,,,,,,,,f,0,0.3566505420021713,,,,,,,,,,,,,,,,,,,,,,,,,,,,,,,103,001,2021_Sep_22_0919,joplin1,2021.2.3,60.09513068660871,
_train_cond.csv,0 0 1 1 1 1 1 1 0 0,6,categoryA,f,,,0,4,4,4,2,6,34,6,,,,,,,,,,,,,,,,,,,j,0,0.4753496248740703,,,,,,,,,,,,,,,,,,,,,,,,,,,,,,,103,001,2021_Sep_22_0919,joplin1,2021.2.3,60.09513068660871,
_train_cond.csv,1 1 1 0 1 1 0 1 1 1,8,categoryA,f,,,0,4,4,4,2,7,35,4,,,,,,,,,,,,,,,,,,,f,1,0.3192597918678075,,,,,,,,,,,,,,,,,,,,,,,,,,,,,,,103,001,2021_Sep_22_0919,joplin1,2021.2.3,60.09513068660871,
_train_cond.csv,0 0 1 0 1 1 0 1 0 0,4,categoryB,j,,,0,4,4,4,2,8,36,9,,,,,,,,,,,,,,,,,,,j,1,0.30318337492644787,,,,,,,,,,,,,,,,,,,,,,,,,,,,,,,103,001,2021_Sep_22_0919,joplin1,2021.2.3,60.09513068660871,
_train_cond.csv,1 1 0 1 1 1 1 0 1 1,8,categoryA,f,,,0,4,4,4,2,9,37,5,,,,,,,,,,,,,,,,,,,f,1,0.416110125137493,,,,,,,,,,,,,,,,,,,,,,,,,,,,,,,103,001,2021_Sep_22_0919,joplin1,2021.2.3,60.09513068660871,
_train_cond.csv,1 1 0 1 0 0 1 0 1 1,6,categoryA,f,,,0,4,4,4,2,10,38,2,,,,,,,,,,,,,,,,,,,j,0,0.3888502500485629,,,,,,,,,,,,,,,,,,,,,,,,,,,,,,,103,001,2021_Sep_22_0919,joplin1,2021.2.3,60.09513068660871,
_train_cond.csv,0 1 0 0 0 0 0 0 1 0,2,categoryB,j,,,0,4,4,4,2,11,39,8,,,,,,,,,,,,,,,,,,,j,1,0.28992945910431445,,,,,,,,,,,,,,,,,,,,,,,,,,,,,,,103,001,2021_Sep_22_0919,joplin1,2021.2.3,60.09513068660871,
_train_cond.csv,0 0 0 1 1 1 1 0 0 0,4,categoryB,j,,,0,4,4,4,2,12,40,10,,,,,,,,,,,,,,,,,,,j,1,0.32369174994528294,,,,,,,,,,,,,,,,,,,,,,,,,,,,,,,103,001,2021_Sep_22_0919,joplin1,2021.2.3,60.09513068660871,
_train_cond.csv,1 1 0 0 0 0 0 0 1 1,4,categoryB,j,,,0,4,4,4,2,13,41,13,,,,,,,,,,,,,,,,,,,j,1,0.508919500047341,,,,,,,,,,,,,,,,,,,,,,,,,,,,,,,103,001,2021_Sep_22_0919,joplin1,2021.2.3,60.09513068660871,
_train_cond.csv,,,,,,,0,4,4,4,,,,,,,,,,,,,,,,,,,,,,,,,,space,11.998252749908715,,,,,,,,,,,,,,,,,,,,,,,,,,,,,103,001,2021_Sep_22_0919,joplin1,2021.2.3,60.09513068660871,
_train_cond.csv,0 1 1 1 1 1 1 1 1 0,8,categoryA,f,,,0,5,5,7,0,0,0,0,,,,,,,,,,,,,,,,,,,j,0,0.3464398751966655,,,,,,,,,,,,,,,,,,,,,,,,,,,,,,,103,001,2021_Sep_22_0919,joplin1,2021.2.3,60.09513068660871,
_train_cond.csv,0 0 0 1 1 1 1 0 0 0,4,categoryB,j,,,0,5,5,7,0,1,1,10,,,,,,,,,,,,,,,,,,,j,1,0.306565374834463,,,,,,,,,,,,,,,,,,,,,,,,,,,,,,,103,001,2021_Sep_22_0919,joplin1,2021.2.3,60.09513068660871,
_train_cond.csv,1 1 1 0 0 0 0 1 1 1,6,categoryA,f,,,0,5,5,7,0,2,2,3,,,,,,,,,,,,,,,,,,,f,1,0.3252263341564685,,,,,,,,,,,,,,,,,,,,,,,,,,,,,,,103,001,2021_Sep_22_0919,joplin1,2021.2.3,60.09513068660871,
_train_cond.csv,1 1 0 1 1 1 1 0 1 1,8,categoryA,f,,,0,5,5,7,0,3,3,5,,,,,,,,,,,,,,,,,,,j,0,0.30236795893870294,,,,,,,,,,,,,,,,,,,,,,,,,,,,,,,103,001,2021_Sep_22_0919,joplin1,2021.2.3,60.09513068660871,
_train_cond.csv,0 0 1 0 0 0 0 1 0 0,2,categoryB,j,,,0,5,5,7,0,4,4,12,,,,,,,,,,,,,,,,,,,j,1,0.2936188329476863,,,,,,,,,,,,,,,,,,,,,,,,,,,,,,,103,001,2021_Sep_22_0919,joplin1,2021.2.3,60.09513068660871,
_train_cond.csv,1 0 0 0 0 0 0 0 0 1,2,categoryB,j,,,0,5,5,7,0,5,5,7,,,,,,,,,,,,,,,,,,,f,0,0.42209949996322393,,,,,,,,,,,,,,,,,,,,,,,,,,,,,,,103,001,2021_Sep_22_0919,joplin1,2021.2.3,60.09513068660871,
_train_cond.csv,0 0 1 0 1 1 0 1 0 0,4,categoryB,j,,,0,5,5,7,0,6,6,9,,,,,,,,,,,,,,,,,,,j,1,0.28259408310987055,,,,,,,,,,,,,,,,,,,,,,,,,,,,,,,103,001,2021_Sep_22_0919,joplin1,2021.2.3,60.09513068660871,
_train_cond.csv,0 0 1 1 1 1 1 1 0 0,6,categoryA,f,,,0,5,5,7,0,7,7,6,,,,,,,,,,,,,,,,,,,j,0,0.2534153750166297,,,,,,,,,,,,,,,,,,,,,,,,,,,,,,,103,001,2021_Sep_22_0919,joplin1,2021.2.3,60.09513068660871,
_train_cond.csv,0 0 0 1 0 0 1 0 0 0,2,categoryB,j,,,0,5,5,7,0,8,8,11,,,,,,,,,,,,,,,,,,,j,1,0.279947750037536,,,,,,,,,,,,,,,,,,,,,,,,,,,,,,,103,001,2021_Sep_22_0919,joplin1,2021.2.3,60.09513068660871,
_train_cond.csv,0 1 0 0 0 0 0 0 1 0,2,categoryB,j,,,0,5,5,7,0,9,9,8,,,,,,,,,,,,,,,,,,,j,1,0.22526883287355304,,,,,,,,,,,,,,,,,,,,,,,,,,,,,,,103,001,2021_Sep_22_0919,joplin1,2021.2.3,60.09513068660871,
_train_cond.csv,1 1 0 0 0 0 0 0 1 1,4,categoryB,j,,,0,5,5,7,0,10,10,13,,,,,,,,,,,,,,,,,,,f,0,0.3097450830973685,,,,,,,,,,,,,,,,,,,,,,,,,,,,,,,103,001,2021_Sep_22_0919,joplin1,2021.2.3,60.09513068660871,
_train_cond.csv,1 1 0 1 0 0 1 0 1 1,6,categoryA,f,,,0,5,5,7,0,11,11,2,,,,,,,,,,,,,,,,,,,f,1,0.3514204591047019,,,,,,,,,,,,,,,,,,,,,,,,,,,,,,,103,001,2021_Sep_22_0919,joplin1,2021.2.3,60.09513068660871,
_train_cond.csv,1 1 1 0 1 1 0 1 1 1,8,categoryA,f,,,0,5,5,7,0,12,12,4,,,,,,,,,,,,,,,,,,,f,1,0.31070245802402496,,,,,,,,,,,,,,,,,,,,,,,,,,,,,,,103,001,2021_Sep_22_0919,joplin1,2021.2.3,60.09513068660871,
_train_cond.csv,1 0 1 1 1 1 1 1 0 1,8,categoryA,f,,,0,5,5,7,0,13,13,1,,,,,,,,,,,,,,,,,,,f,1,0.1609282079152763,,,,,,,,,,,,,,,,,,,,,,,,,,,,,,,103,001,2021_Sep_22_0919,joplin1,2021.2.3,60.09513068660871,
_train_cond.csv,0 1 0 0 0 0 0 0 1 0,2,categoryB,j,,,0,5,5,7,1,0,14,8,,,,,,,,,,,,,,,,,,,j,1,0.39279687497764826,,,,,,,,,,,,,,,,,,,,,,,,,,,,,,,103,001,2021_Sep_22_0919,joplin1,2021.2.3,60.09513068660871,
_train_cond.csv,0 1 1 1 1 1 1 1 1 0,8,categoryA,f,,,0,5,5,7,1,1,15,0,,,,,,,,,,,,,,,,,,,f,1,0.2779174998868257,,,,,,,,,,,,,,,,,,,,,,,,,,,,,,,103,001,2021_Sep_22_0919,joplin1,2021.2.3,60.09513068660871,
_train_cond.csv,1 1 1 0 1 1 0 1 1 1,8,categoryA,f,,,0,5,5,7,1,2,16,4,,,,,,,,,,,,,,,,,,,f,1,0.3048021250870079,,,,,,,,,,,,,,,,,,,,,,,,,,,,,,,103,001,2021_Sep_22_0919,joplin1,2021.2.3,60.09513068660871,
_train_cond.csv,1 1 0 1 1 1 1 0 1 1,8,categoryA,f,,,0,5,5,7,1,3,17,5,,,,,,,,,,,,,,,,,,,f,1,0.21887354087084532,,,,,,,,,,,,,,,,,,,,,,,,,,,,,,,103,001,2021_Sep_22_0919,joplin1,2021.2.3,60.09513068660871,
_train_cond.csv,1 0 1 1 1 1 1 1 0 1,8,categoryA,f,,,0,5,5,7,1,4,18,1,,,,,,,,,,,,,,,,,,,f,1,0.31208199984394014,,,,,,,,,,,,,,,,,,,,,,,,,,,,,,,103,001,2021_Sep_22_0919,joplin1,2021.2.3,60.09513068660871,
_train_cond.csv,1 1 0 0 0 0 0 0 1 1,4,categoryB,j,,,0,5,5,7,1,5,19,13,,,,,,,,,,,,,,,,,,,f,0,0.3531935000792146,,,,,,,,,,,,,,,,,,,,,,,,,,,,,,,103,001,2021_Sep_22_0919,joplin1,2021.2.3,60.09513068660871,
_train_cond.csv,1 1 0 1 0 0 1 0 1 1,6,categoryA,f,,,0,5,5,7,1,6,20,2,,,,,,,,,,,,,,,,,,,j,0,0.3200172078795731,,,,,,,,,,,,,,,,,,,,,,,,,,,,,,,103,001,2021_Sep_22_0919,joplin1,2021.2.3,60.09513068660871,
_train_cond.csv,0 0 0 1 1 1 1 0 0 0,4,categoryB,j,,,0,5,5,7,1,7,21,10,,,,,,,,,,,,,,,,,,,j,1,0.4640396670438349,,,,,,,,,,,,,,,,,,,,,,,,,,,,,,,103,001,2021_Sep_22_0919,joplin1,2021.2.3,60.09513068660871,
_train_cond.csv,0 0 1 1 1 1 1 1 0 0,6,categoryA,f,,,0,5,5,7,1,8,22,6,,,,,,,,,,,,,,,,,,,j,0,0.24298904207535088,,,,,,,,,,,,,,,,,,,,,,,,,,,,,,,103,001,2021_Sep_22_0919,joplin1,2021.2.3,60.09513068660871,
_train_cond.csv,0 0 1 0 1 1 0 1 0 0,4,categoryB,j,,,0,5,5,7,1,9,23,9,,,,,,,,,,,,,,,,,,,j,1,0.28017783304676414,,,,,,,,,,,,,,,,,,,,,,,,,,,,,,,103,001,2021_Sep_22_0919,joplin1,2021.2.3,60.09513068660871,
_train_cond.csv,1 1 1 0 0 0 0 1 1 1,6,categoryA,f,,,0,5,5,7,1,10,24,3,,,,,,,,,,,,,,,,,,,f,1,0.33012383291497827,,,,,,,,,,,,,,,,,,,,,,,,,,,,,,,103,001,2021_Sep_22_0919,joplin1,2021.2.3,60.09513068660871,
_train_cond.csv,0 0 0 1 0 0 1 0 0 0,2,categoryB,j,,,0,5,5,7,1,11,25,11,,,,,,,,,,,,,,,,,,,j,1,0.305950041860342,,,,,,,,,,,,,,,,,,,,,,,,,,,,,,,103,001,2021_Sep_22_0919,joplin1,2021.2.3,60.09513068660871,
_train_cond.csv,1 0 0 0 0 0 0 0 0 1,2,categoryB,j,,,0,5,5,7,1,12,26,7,,,,,,,,,,,,,,,,,,,j,1,0.3226786660961807,,,,,,,,,,,,,,,,,,,,,,,,,,,,,,,103,001,2021_Sep_22_0919,joplin1,2021.2.3,60.09513068660871,
_train_cond.csv,0 0 1 0 0 0 0 1 0 0,2,categoryB,j,,,0,5,5,7,1,13,27,12,,,,,,,,,,,,,,,,,,,f,0,0.4441756249871105,,,,,,,,,,,,,,,,,,,,,,,,,,,,,,,103,001,2021_Sep_22_0919,joplin1,2021.2.3,60.09513068660871,
_train_cond.csv,1 0 1 1 1 1 1 1 0 1,8,categoryA,f,,,0,5,5,7,2,0,28,1,,,,,,,,,,,,,,,,,,,f,1,0.3031286660116166,,,,,,,,,,,,,,,,,,,,,,,,,,,,,,,103,001,2021_Sep_22_0919,joplin1,2021.2.3,60.09513068660871,
_train_cond.csv,0 0 1 0 1 1 0 1 0 0,4,categoryB,j,,,0,5,5,7,2,1,29,9,,,,,,,,,,,,,,,,,,,j,1,0.28881733398884535,,,,,,,,,,,,,,,,,,,,,,,,,,,,,,,103,001,2021_Sep_22_0919,joplin1,2021.2.3,60.09513068660871,
_train_cond.csv,0 0 1 1 1 1 1 1 0 0,6,categoryA,f,,,0,5,5,7,2,2,30,6,,,,,,,,,,,,,,,,,,,j,0,0.5542518750298768,,,,,,,,,,,,,,,,,,,,,,,,,,,,,,,103,001,2021_Sep_22_0919,joplin1,2021.2.3,60.09513068660871,
_train_cond.csv,1 1 1 0 1 1 0 1 1 1,8,categoryA,f,,,0,5,5,7,2,3,31,4,,,,,,,,,,,,,,,,,,,f,1,0.3936825841665268,,,,,,,,,,,,,,,,,,,,,,,,,,,,,,,103,001,2021_Sep_22_0919,joplin1,2021.2.3,60.09513068660871,
_train_cond.csv,0 1 1 1 1 1 1 1 1 0,8,categoryA,f,,,0,5,5,7,2,4,32,0,,,,,,,,,,,,,,,,,,,j,0,0.3116126249078661,,,,,,,,,,,,,,,,,,,,,,,,,,,,,,,103,001,2021_Sep_22_0919,joplin1,2021.2.3,60.09513068660871,
_train_cond.csv,1 0 0 0 0 0 0 0 0 1,2,categoryB,j,,,0,5,5,7,2,5,33,7,,,,,,,,,,,,,,,,,,,f,0,0.28001958411186934,,,,,,,,,,,,,,,,,,,,,,,,,,,,,,,103,001,2021_Sep_22_0919,joplin1,2021.2.3,60.09513068660871,
_train_cond.csv,1 1 0 1 0 0 1 0 1 1,6,categoryA,f,,,0,5,5,7,2,6,34,2,,,,,,,,,,,,,,,,,,,j,0,0.21817325009033084,,,,,,,,,,,,,,,,,,,,,,,,,,,,,,,103,001,2021_Sep_22_0919,joplin1,2021.2.3,60.09513068660871,
_train_cond.csv,0 1 0 0 0 0 0 0 1 0,2,categoryB,j,,,0,5,5,7,2,7,35,8,,,,,,,,,,,,,,,,,,,j,1,0.24668629188090563,,,,,,,,,,,,,,,,,,,,,,,,,,,,,,,103,001,2021_Sep_22_0919,joplin1,2021.2.3,60.09513068660871,
_train_cond.csv,1 1 1 0 0 0 0 1 1 1,6,categoryA,f,,,0,5,5,7,2,8,36,3,,,,,,,,,,,,,,,,,,,f,1,0.25854024989530444,,,,,,,,,,,,,,,,,,,,,,,,,,,,,,,103,001,2021_Sep_22_0919,joplin1,2021.2.3,60.09513068660871,
_train_cond.csv,0 0 0 1 0 0 1 0 0 0,2,categoryB,j,,,0,5,5,7,2,9,37,11,,,,,,,,,,,,,,,,,,,j,1,0.27848087484017015,,,,,,,,,,,,,,,,,,,,,,,,,,,,,,,103,001,2021_Sep_22_0919,joplin1,2021.2.3,60.09513068660871,
_train_cond.csv,1 1 0 1 1 1 1 0 1 1,8,categoryA,f,,,0,5,5,7,2,10,38,5,,,,,,,,,,,,,,,,,,,f,1,0.2563559589907527,,,,,,,,,,,,,,,,,,,,,,,,,,,,,,,103,001,2021_Sep_22_0919,joplin1,2021.2.3,60.09513068660871,
_train_cond.csv,1 1 0 0 0 0 0 0 1 1,4,categoryB,j,,,0,5,5,7,2,11,39,13,,,,,,,,,,,,,,,,,,,f,0,0.19531316589564085,,,,,,,,,,,,,,,,,,,,,,,,,,,,,,,103,001,2021_Sep_22_0919,joplin1,2021.2.3,60.09513068660871,
_train_cond.csv,0 0 1 0 0 0 0 1 0 0,2,categoryB,j,,,0,5,5,7,2,12,40,12,,,,,,,,,,,,,,,,,,,j,1,0.1294504168909043,,,,,,,,,,,,,,,,,,,,,,,,,,,,,,,103,001,2021_Sep_22_0919,joplin1,2021.2.3,60.09513068660871,
_train_cond.csv,0 0 0 1 1 1 1 0 0 0,4,categoryB,j,,,0,5,5,7,2,13,41,10,,,,,,,,,,,,,,,,,,,j,1,0.2894196668639779,,,,,,,,,,,,,,,,,,,,,,,,,,,,,,,103,001,2021_Sep_22_0919,joplin1,2021.2.3,60.09513068660871,
_train_cond.csv,,,,,,,0,5,5,7,,,,,,,,,,,,,,,,,,,,,,,,,,space,5.148103165905923,,,,,,,,,,,,,,,,,,,,,,,,,,,,,103,001,2021_Sep_22_0919,joplin1,2021.2.3,60.09513068660871,
_train_cond.csv,1 0 0 0 0 0 0 0 0 1,2,categoryB,j,,,0,6,6,2,0,0,0,7,,,,,,,,,,,,,,,,,,,j,1,0.41880287509411573,,,,,,,,,,,,,,,,,,,,,,,,,,,,,,,103,001,2021_Sep_22_0919,joplin1,2021.2.3,60.09513068660871,
_train_cond.csv,1 1 0 1 1 1 1 0 1 1,8,categoryA,f,,,0,6,6,2,0,1,1,5,,,,,,,,,,,,,,,,,,,f,1,0.2001371248625219,,,,,,,,,,,,,,,,,,,,,,,,,,,,,,,103,001,2021_Sep_22_0919,joplin1,2021.2.3,60.09513068660871,
_train_cond.csv,1 0 1 1 1 1 1 1 0 1,8,categoryA,f,,,0,6,6,2,0,2,2,1,,,,,,,,,,,,,,,,,,,j,0,0.2457313749473542,,,,,,,,,,,,,,,,,,,,,,,,,,,,,,,103,001,2021_Sep_22_0919,joplin1,2021.2.3,60.09513068660871,
_train_cond.csv,0 0 1 0 1 1 0 1 0 0,4,categoryB,j,,,0,6,6,2,0,3,3,9,,,,,,,,,,,,,,,,,,,j,1,0.2659198329783976,,,,,,,,,,,,,,,,,,,,,,,,,,,,,,,103,001,2021_Sep_22_0919,joplin1,2021.2.3,60.09513068660871,
_train_cond.csv,0 0 1 1 1 1 1 1 0 0,6,categoryA,f,,,0,6,6,2,0,4,4,6,,,,,,,,,,,,,,,,,,,j,0,0.29211054113693535,,,,,,,,,,,,,,,,,,,,,,,,,,,,,,,103,001,2021_Sep_22_0919,joplin1,2021.2.3,60.09513068660871,
_train_cond.csv,1 1 0 1 0 0 1 0 1 1,6,categoryA,f,,,0,6,6,2,0,5,5,2,,,,,,,,,,,,,,,,,,,f,1,0.2544312500394881,,,,,,,,,,,,,,,,,,,,,,,,,,,,,,,103,001,2021_Sep_22_0919,joplin1,2021.2.3,60.09513068660871,
_train_cond.csv,1 1 1 0 0 0 0 1 1 1,6,categoryA,f,,,0,6,6,2,0,6,6,3,,,,,,,,,,,,,,,,,,,j,0,0.345217167166993,,,,,,,,,,,,,,,,,,,,,,,,,,,,,,,103,001,2021_Sep_22_0919,joplin1,2021.2.3,60.09513068660871,
_train_cond.csv,1 1 1 0 1 1 0 1 1 1,8,categoryA,f,,,0,6,6,2,0,7,7,4,,,,,,,,,,,,,,,,,,,f,1,0.3447695409413427,,,,,,,,,,,,,,,,,,,,,,,,,,,,,,,103,001,2021_Sep_22_0919,joplin1,2021.2.3,60.09513068660871,
_train_cond.csv,0 0 0 1 0 0 1 0 0 0,2,categoryB,j,,,0,6,6,2,0,8,8,11,,,,,,,,,,,,,,,,,,,j,1,0.2564642080105841,,,,,,,,,,,,,,,,,,,,,,,,,,,,,,,103,001,2021_Sep_22_0919,joplin1,2021.2.3,60.09513068660871,
_train_cond.csv,1 1 0 0 0 0 0 0 1 1,4,categoryB,j,,,0,6,6,2,0,9,9,13,,,,,,,,,,,,,,,,,,,f,0,0.5081094168126583,,,,,,,,,,,,,,,,,,,,,,,,,,,,,,,103,001,2021_Sep_22_0919,joplin1,2021.2.3,60.09513068660871,
_train_cond.csv,0 1 1 1 1 1 1 1 1 0,8,categoryA,f,,,0,6,6,2,0,10,10,0,,,,,,,,,,,,,,,,,,,j,0,0.2765954160131514,,,,,,,,,,,,,,,,,,,,,,,,,,,,,,,103,001,2021_Sep_22_0919,joplin1,2021.2.3,60.09513068660871,
_train_cond.csv,0 0 0 1 1 1 1 0 0 0,4,categoryB,j,,,0,6,6,2,0,11,11,10,,,,,,,,,,,,,,,,,,,f,0,0.23161004087887704,,,,,,,,,,,,,,,,,,,,,,,,,,,,,,,103,001,2021_Sep_22_0919,joplin1,2021.2.3,60.09513068660871,
_train_cond.csv,0 1 0 0 0 0 0 0 1 0,2,categoryB,j,,,0,6,6,2,0,12,12,8,,,,,,,,,,,,,,,,,,,j,1,0.33953700005076826,,,,,,,,,,,,,,,,,,,,,,,,,,,,,,,103,001,2021_Sep_22_0919,joplin1,2021.2.3,60.09513068660871,
_train_cond.csv,0 0 1 0 0 0 0 1 0 0,2,categoryB,j,,,0,6,6,2,0,13,13,12,,,,,,,,,,,,,,,,,,,j,1,0.2834401249419898,,,,,,,,,,,,,,,,,,,,,,,,,,,,,,,103,001,2021_Sep_22_0919,joplin1,2021.2.3,60.09513068660871,
_train_cond.csv,1 1 1 0 0 0 0 1 1 1,6,categoryA,f,,,0,6,6,2,1,0,14,3,,,,,,,,,,,,,,,,,,,f,1,0.2375335420947522,,,,,,,,,,,,,,,,,,,,,,,,,,,,,,,103,001,2021_Sep_22_0919,joplin1,2021.2.3,60.09513068660871,
_train_cond.csv,0 0 1 1 1 1 1 1 0 0,6,categoryA,f,,,0,6,6,2,1,1,15,6,,,,,,,,,,,,,,,,,,,j,0,0.287917000008747,,,,,,,,,,,,,,,,,,,,,,,,,,,,,,,103,001,2021_Sep_22_0919,joplin1,2021.2.3,60.09513068660871,
_train_cond.csv,0 0 0 1 0 0 1 0 0 0,2,categoryB,j,,,0,6,6,2,1,2,16,11,,,,,,,,,,,,,,,,,,,j,1,0.2326522918883711,,,,,,,,,,,,,,,,,,,,,,,,,,,,,,,103,001,2021_Sep_22_0919,joplin1,2021.2.3,60.09513068660871,
_train_cond.csv,0 1 0 0 0 0 0 0 1 0,2,categoryB,j,,,0,6,6,2,1,3,17,8,,,,,,,,,,,,,,,,,,,j,1,0.31766750011593103,,,,,,,,,,,,,,,,,,,,,,,,,,,,,,,103,001,2021_Sep_22_0919,joplin1,2021.2.3,60.09513068660871,
_train_cond.csv,0 0 1 0 1 1 0 1 0 0,4,categoryB,j,,,0,6,6,2,1,4,18,9,,,,,,,,,,,,,,,,,,,j,1,0.26208645780570805,,,,,,,,,,,,,,,,,,,,,,,,,,,,,,,103,001,2021_Sep_22_0919,joplin1,2021.2.3,60.09513068660871,
_train_cond.csv,1 1 0 1 0 0 1 0 1 1,6,categoryA,f,,,0,6,6,2,1,5,19,2,,,,,,,,,,,,,,,,,,,f,1,0.26463158382102847,,,,,,,,,,,,,,,,,,,,,,,,,,,,,,,103,001,2021_Sep_22_0919,joplin1,2021.2.3,60.09513068660871,
_train_cond.csv,0 0 1 0 0 0 0 1 0 0,2,categoryB,j,,,0,6,6,2,1,6,20,12,,,,,,,,,,,,,,,,,,,j,1,0.2516836249269545,,,,,,,,,,,,,,,,,,,,,,,,,,,,,,,103,001,2021_Sep_22_0919,joplin1,2021.2.3,60.09513068660871,
_train_cond.csv,0 1 1 1 1 1 1 1 1 0,8,categoryA,f,,,0,6,6,2,1,7,21,0,,,,,,,,,,,,,,,,,,,j,0,0.2064270838163793,,,,,,,,,,,,,,,,,,,,,,,,,,,,,,,103,001,2021_Sep_22_0919,joplin1,2021.2.3,60.09513068660871,
_train_cond.csv,1 0 1 1 1 1 1 1 0 1,8,categoryA,f,,,0,6,6,2,1,8,22,1,,,,,,,,,,,,,,,,,,,f,1,0.292413332965225,,,,,,,,,,,,,,,,,,,,,,,,,,,,,,,103,001,2021_Sep_22_0919,joplin1,2021.2.3,60.09513068660871,
_train_cond.csv,1 0 0 0 0 0 0 0 0 1,2,categoryB,j,,,0,6,6,2,1,9,23,7,,,,,,,,,,,,,,,,,,,f,0,0.2449743750039488,,,,,,,,,,,,,,,,,,,,,,,,,,,,,,,103,001,2021_Sep_22_0919,joplin1,2021.2.3,60.09513068660871,
_train_cond.csv,0 0 0 1 1 1 1 0 0 0,4,categoryB,j,,,0,6,6,2,1,10,24,10,,,,,,,,,,,,,,,,,,,j,1,0.4406498752068728,,,,,,,,,,,,,,,,,,,,,,,,,,,,,,,103,001,2021_Sep_22_0919,joplin1,2021.2.3,60.09513068660871,
_train_cond.csv,1 1 1 0 1 1 0 1 1 1,8,categoryA,f,,,0,6,6,2,1,11,25,4,,,,,,,,,,,,,,,,,,,f,1,0.22074637515470386,,,,,,,,,,,,,,,,,,,,,,,,,,,,,,,103,001,2021_Sep_22_0919,joplin1,2021.2.3,60.09513068660871,
_train_cond.csv,1 1 0 1 1 1 1 0 1 1,8,categoryA,f,,,0,6,6,2,1,12,26,5,,,,,,,,,,,,,,,,,,,f,1,0.32096570800058544,,,,,,,,,,,,,,,,,,,,,,,,,,,,,,,103,001,2021_Sep_22_0919,joplin1,2021.2.3,60.09513068660871,
_train_cond.csv,1 1 0 0 0 0 0 0 1 1,4,categoryB,j,,,0,6,6,2,1,13,27,13,,,,,,,,,,,,,,,,,,,f,0,0.2268179589882493,,,,,,,,,,,,,,,,,,,,,,,,,,,,,,,103,001,2021_Sep_22_0919,joplin1,2021.2.3,60.09513068660871,
_train_cond.csv,1 1 0 1 0 0 1 0 1 1,6,categoryA,f,,,0,6,6,2,2,0,28,2,,,,,,,,,,,,,,,,,,,j,0,0.28760999999940395,,,,,,,,,,,,,,,,,,,,,,,,,,,,,,,103,001,2021_Sep_22_0919,joplin1,2021.2.3,60.09513068660871,
_train_cond.csv,1 1 1 0 1 1 0 1 1 1,8,categoryA,f,,,0,6,6,2,2,1,29,4,,,,,,,,,,,,,,,,,,,j,0,0.3854540418833494,,,,,,,,,,,,,,,,,,,,,,,,,,,,,,,103,001,2021_Sep_22_0919,joplin1,2021.2.3,60.09513068660871,
_train_cond.csv,0 0 0 1 1 1 1 0 0 0,4,categoryB,j,,,0,6,6,2,2,2,30,10,,,,,,,,,,,,,,,,,,,j,1,0.2885842078831047,,,,,,,,,,,,,,,,,,,,,,,,,,,,,,,103,001,2021_Sep_22_0919,joplin1,2021.2.3,60.09513068660871,
_train_cond.csv,1 1 0 1 1 1 1 0 1 1,8,categoryA,f,,,0,6,6,2,2,3,31,5,,,,,,,,,,,,,,,,,,,f,1,0.30635495809838176,,,,,,,,,,,,,,,,,,,,,,,,,,,,,,,103,001,2021_Sep_22_0919,joplin1,2021.2.3,60.09513068660871,
_train_cond.csv,1 0 0 0 0 0 0 0 0 1,2,categoryB,j,,,0,6,6,2,2,4,32,7,,,,,,,,,,,,,,,,,,,f,0,0.26671825000084937,,,,,,,,,,,,,,,,,,,,,,,,,,,,,,,103,001,2021_Sep_22_0919,joplin1,2021.2.3,60.09513068660871,
_train_cond.csv,0 1 0 0 0 0 0 0 1 0,2,categoryB,j,,,0,6,6,2,2,5,33,8,,,,,,,,,,,,,,,,,,,j,1,0.23768979194574058,,,,,,,,,,,,,,,,,,,,,,,,,,,,,,,103,001,2021_Sep_22_0919,joplin1,2021.2.3,60.09513068660871,
_train_cond.csv,1 0 1 1 1 1 1 1 0 1,8,categoryA,f,,,0,6,6,2,2,6,34,1,,,,,,,,,,,,,,,,,,,f,1,0.2886695838533342,,,,,,,,,,,,,,,,,,,,,,,,,,,,,,,103,001,2021_Sep_22_0919,joplin1,2021.2.3,60.09513068660871,
_train_cond.csv,0 0 0 1 0 0 1 0 0 0,2,categoryB,j,,,0,6,6,2,2,7,35,11,,,,,,,,,,,,,,,,,,,j,1,0.28164570801891387,,,,,,,,,,,,,,,,,,,,,,,,,,,,,,,103,001,2021_Sep_22_0919,joplin1,2021.2.3,60.09513068660871,
_train_cond.csv,1 1 1 0 0 0 0 1 1 1,6,categoryA,f,,,0,6,6,2,2,8,36,3,,,,,,,,,,,,,,,,,,,f,1,0.4109979160130024,,,,,,,,,,,,,,,,,,,,,,,,,,,,,,,103,001,2021_Sep_22_0919,joplin1,2021.2.3,60.09513068660871,
_train_cond.csv,0 1 1 1 1 1 1 1 1 0,8,categoryA,f,,,0,6,6,2,2,9,37,0,,,,,,,,,,,,,,,,,,,j,0,0.26439487491734326,,,,,,,,,,,,,,,,,,,,,,,,,,,,,,,103,001,2021_Sep_22_0919,joplin1,2021.2.3,60.09513068660871,
_train_cond.csv,0 0 1 1 1 1 1 1 0 0,6,categoryA,f,,,0,6,6,2,2,10,38,6,,,,,,,,,,,,,,,,,,,j,0,0.27511437493376434,,,,,,,,,,,,,,,,,,,,,,,,,,,,,,,103,001,2021_Sep_22_0919,joplin1,2021.2.3,60.09513068660871,
_train_cond.csv,1 1 0 0 0 0 0 0 1 1,4,categoryB,j,,,0,6,6,2,2,11,39,13,,,,,,,,,,,,,,,,,,,f,0,0.3659544999245554,,,,,,,,,,,,,,,,,,,,,,,,,,,,,,,103,001,2021_Sep_22_0919,joplin1,2021.2.3,60.09513068660871,
_train_cond.csv,0 0 1 0 1 1 0 1 0 0,4,categoryB,j,,,0,6,6,2,2,12,40,9,,,,,,,,,,,,,,,,,,,f,0,0.26820437517017126,,,,,,,,,,,,,,,,,,,,,,,,,,,,,,,103,001,2021_Sep_22_0919,joplin1,2021.2.3,60.09513068660871,
_train_cond.csv,0 0 1 0 0 0 0 1 0 0,2,categoryB,j,,,0,6,6,2,2,13,41,12,,,,,,,,,,,,,,,,,,,j,1,0.2864277909975499,,,,,,,,,,,,,,,,,,,,,,,,,,,,,,,103,001,2021_Sep_22_0919,joplin1,2021.2.3,60.09513068660871,
_train_cond.csv,,,,,,,0,6,6,2,,,,,,,,,,,,,,,,,,,,,,,,,,space,4.592882874887437,,,,,,,,,,,,,,,,,,,,,,,,,,,,,103,001,2021_Sep_22_0919,joplin1,2021.2.3,60.09513068660871,
_train_cond.csv,1 1 0 1 0 0 1 0 1 1,6,categoryA,f,,,0,7,7,3,0,0,0,2,,,,,,,,,,,,,,,,,,,f,1,0.25328570790588856,,,,,,,,,,,,,,,,,,,,,,,,,,,,,,,103,001,2021_Sep_22_0919,joplin1,2021.2.3,60.09513068660871,
_train_cond.csv,0 0 1 0 0 0 0 1 0 0,2,categoryB,j,,,0,7,7,3,0,1,1,12,,,,,,,,,,,,,,,,,,,j,1,0.2648644589353353,,,,,,,,,,,,,,,,,,,,,,,,,,,,,,,103,001,2021_Sep_22_0919,joplin1,2021.2.3,60.09513068660871,
_train_cond.csv,0 0 1 1 1 1 1 1 0 0,6,categoryA,f,,,0,7,7,3,0,2,2,6,,,,,,,,,,,,,,,,,,,j,0,0.22749333293177187,,,,,,,,,,,,,,,,,,,,,,,,,,,,,,,103,001,2021_Sep_22_0919,joplin1,2021.2.3,60.09513068660871,
_train_cond.csv,0 0 1 0 1 1 0 1 0 0,4,categoryB,j,,,0,7,7,3,0,3,3,9,,,,,,,,,,,,,,,,,,,f,0,0.24768675002269447,,,,,,,,,,,,,,,,,,,,,,,,,,,,,,,103,001,2021_Sep_22_0919,joplin1,2021.2.3,60.09513068660871,
_train_cond.csv,1 0 1 1 1 1 1 1 0 1,8,categoryA,f,,,0,7,7,3,0,4,4,1,,,,,,,,,,,,,,,,,,,f,1,0.31546212499961257,,,,,,,,,,,,,,,,,,,,,,,,,,,,,,,103,001,2021_Sep_22_0919,joplin1,2021.2.3,60.09513068660871,
_train_cond.csv,0 1 0 0 0 0 0 0 1 0,2,categoryB,j,,,0,7,7,3,0,5,5,8,,,,,,,,,,,,,,,,,,,j,1,0.2843165418598801,,,,,,,,,,,,,,,,,,,,,,,,,,,,,,,103,001,2021_Sep_22_0919,joplin1,2021.2.3,60.09513068660871,
_train_cond.csv,1 1 0 1 1 1 1 0 1 1,8,categoryA,f,,,0,7,7,3,0,6,6,5,,,,,,,,,,,,,,,,,,,f,1,0.30149487499147654,,,,,,,,,,,,,,,,,,,,,,,,,,,,,,,103,001,2021_Sep_22_0919,joplin1,2021.2.3,60.09513068660871,
_train_cond.csv,0 0 0 1 0 0 1 0 0 0,2,categoryB,j,,,0,7,7,3,0,7,7,11,,,,,,,,,,,,,,,,,,,j,1,0.2706321249715984,,,,,,,,,,,,,,,,,,,,,,,,,,,,,,,103,001,2021_Sep_22_0919,joplin1,2021.2.3,60.09513068660871,
_train_cond.csv,1 1 1 0 1 1 0 1 1 1,8,categoryA,f,,,0,7,7,3,0,8,8,4,,,,,,,,,,,,,,,,,,,f,1,0.3056485829874873,,,,,,,,,,,,,,,,,,,,,,,,,,,,,,,103,001,2021_Sep_22_0919,joplin1,2021.2.3,60.09513068660871,
_train_cond.csv,1 1 0 0 0 0 0 0 1 1,4,categoryB,j,,,0,7,7,3,0,9,9,13,,,,,,,,,,,,,,,,,,,f,0,0.32278533396311104,,,,,,,,,,,,,,,,,,,,,,,,,,,,,,,103,001,2021_Sep_22_0919,joplin1,2021.2.3,60.09513068660871,
_train_cond.csv,1 1 1 0 0 0 0 1 1 1,6,categoryA,f,,,0,7,7,3,0,10,10,3,,,,,,,,,,,,,,,,,,,f,1,0.2601800828706473,,,,,,,,,,,,,,,,,,,,,,,,,,,,,,,103,001,2021_Sep_22_0919,joplin1,2021.2.3,60.09513068660871,
_train_cond.csv,0 0 0 1 1 1 1 0 0 0,4,categoryB,j,,,0,7,7,3,0,11,11,10,,,,,,,,,,,,,,,,,,,j,1,0.22960987500846386,,,,,,,,,,,,,,,,,,,,,,,,,,,,,,,103,001,2021_Sep_22_0919,joplin1,2021.2.3,60.09513068660871,
_train_cond.csv,1 0 0 0 0 0 0 0 0 1,2,categoryB,j,,,0,7,7,3,0,12,12,7,,,,,,,,,,,,,,,,,,,f,0,0.25134329102002084,,,,,,,,,,,,,,,,,,,,,,,,,,,,,,,103,001,2021_Sep_22_0919,joplin1,2021.2.3,60.09513068660871,
_train_cond.csv,0 1 1 1 1 1 1 1 1 0,8,categoryA,f,,,0,7,7,3,0,13,13,0,,,,,,,,,,,,,,,,,,,j,0,0.1741383329499513,,,,,,,,,,,,,,,,,,,,,,,,,,,,,,,103,001,2021_Sep_22_0919,joplin1,2021.2.3,60.09513068660871,
_train_cond.csv,0 0 1 0 0 0 0 1 0 0,2,categoryB,j,,,0,7,7,3,1,0,14,12,,,,,,,,,,,,,,,,,,,j,1,0.1312287920154631,,,,,,,,,,,,,,,,,,,,,,,,,,,,,,,103,001,2021_Sep_22_0919,joplin1,2021.2.3,60.09513068660871,
_train_cond.csv,0 0 0 1 1 1 1 0 0 0,4,categoryB,j,,,0,7,7,3,1,1,15,10,,,,,,,,,,,,,,,,,,,j,1,0.2776022918988019,,,,,,,,,,,,,,,,,,,,,,,,,,,,,,,103,001,2021_Sep_22_0919,joplin1,2021.2.3,60.09513068660871,
_train_cond.csv,1 1 1 0 1 1 0 1 1 1,8,categoryA,f,,,0,7,7,3,1,2,16,4,,,,,,,,,,,,,,,,,,,f,1,0.43239949992857873,,,,,,,,,,,,,,,,,,,,,,,,,,,,,,,103,001,2021_Sep_22_0919,joplin1,2021.2.3,60.09513068660871,
_train_cond.csv,0 1 0 0 0 0 0 0 1 0,2,categoryB,j,,,0,7,7,3,1,3,17,8,,,,,,,,,,,,,,,,,,,f,0,0.2924685829784721,,,,,,,,,,,,,,,,,,,,,,,,,,,,,,,103,001,2021_Sep_22_0919,joplin1,2021.2.3,60.09513068660871,
_train_cond.csv,1 1 0 1 0 0 1 0 1 1,6,categoryA,f,,,0,7,7,3,1,4,18,2,,,,,,,,,,,,,,,,,,,j,0,0.31048558303155005,,,,,,,,,,,,,,,,,,,,,,,,,,,,,,,103,001,2021_Sep_22_0919,joplin1,2021.2.3,60.09513068660871,
_train_cond.csv,1 0 1 1 1 1 1 1 0 1,8,categoryA,f,,,0,7,7,3,1,5,19,1,,,,,,,,,,,,,,,,,,,f,1,0.3607362909242511,,,,,,,,,,,,,,,,,,,,,,,,,,,,,,,103,001,2021_Sep_22_0919,joplin1,2021.2.3,60.09513068660871,
_train_cond.csv,1 1 0 0 0 0 0 0 1 1,4,categoryB,j,,,0,7,7,3,1,6,20,13,,,,,,,,,,,,,,,,,,,f,0,0.4155755420215428,,,,,,,,,,,,,,,,,,,,,,,,,,,,,,,103,001,2021_Sep_22_0919,joplin1,2021.2.3,60.09513068660871,
_train_cond.csv,1 0 0 0 0 0 0 0 0 1,2,categoryB,j,,,0,7,7,3,1,7,21,7,,,,,,,,,,,,,,,,,,,f,0,0.315217083087191,,,,,,,,,,,,,,,,,,,,,,,,,,,,,,,103,001,2021_Sep_22_0919,joplin1,2021.2.3,60.09513068660871,
_train_cond.csv,0 0 1 0 1 1 0 1 0 0,4,categoryB,j,,,0,7,7,3,1,8,22,9,,,,,,,,,,,,,,,,,,,j,1,0.3169526669662446,,,,,,,,,,,,,,,,,,,,,,,,,,,,,,,103,001,2021_Sep_22_0919,joplin1,2021.2.3,60.09513068660871,
_train_cond.csv,1 1 1 0 0 0 0 1 1 1,6,categoryA,f,,,0,7,7,3,1,9,23,3,,,,,,,,,,,,,,,,,,,f,1,0.300823625177145,,,,,,,,,,,,,,,,,,,,,,,,,,,,,,,103,001,2021_Sep_22_0919,joplin1,2021.2.3,60.09513068660871,
_train_cond.csv,1 1 0 1 1 1 1 0 1 1,8,categoryA,f,,,0,7,7,3,1,10,24,5,,,,,,,,,,,,,,,,,,,f,1,0.28775408305227757,,,,,,,,,,,,,,,,,,,,,,,,,,,,,,,103,001,2021_Sep_22_0919,joplin1,2021.2.3,60.09513068660871,
_train_cond.csv,0 0 0 1 0 0 1 0 0 0,2,categoryB,j,,,0,7,7,3,1,11,25,11,,,,,,,,,,,,,,,,,,,j,1,0.3375869579613209,,,,,,,,,,,,,,,,,,,,,,,,,,,,,,,103,001,2021_Sep_22_0919,joplin1,2021.2.3,60.09513068660871,
_train_cond.csv,0 0 1 1 1 1 1 1 0 0,6,categoryA,f,,,0,7,7,3,1,12,26,6,,,,,,,,,,,,,,,,,,,j,0,0.28083500009961426,,,,,,,,,,,,,,,,,,,,,,,,,,,,,,,103,001,2021_Sep_22_0919,joplin1,2021.2.3,60.09513068660871,
_train_cond.csv,0 1 1 1 1 1 1 1 1 0,8,categoryA,f,,,0,7,7,3,1,13,27,0,,,,,,,,,,,,,,,,,,,f,1,0.3634201670065522,,,,,,,,,,,,,,,,,,,,,,,,,,,,,,,103,001,2021_Sep_22_0919,joplin1,2021.2.3,60.09513068660871,
_train_cond.csv,0 0 0 1 1 1 1 0 0 0,4,categoryB,j,,,0,7,7,3,2,0,28,10,,,,,,,,,,,,,,,,,,,f,0,0.3535613331478089,,,,,,,,,,,,,,,,,,,,,,,,,,,,,,,103,001,2021_Sep_22_0919,joplin1,2021.2.3,60.09513068660871,
_train_cond.csv,1 0 1 1 1 1 1 1 0 1,8,categoryA,f,,,0,7,7,3,2,1,29,1,,,,,,,,,,,,,,,,,,,f,1,0.29739791713654995,,,,,,,,,,,,,,,,,,,,,,,,,,,,,,,103,001,2021_Sep_22_0919,joplin1,2021.2.3,60.09513068660871,
_train_cond.csv,0 0 1 0 1 1 0 1 0 0,4,categoryB,j,,,0,7,7,3,2,2,30,9,,,,,,,,,,,,,,,,,,,j,1,0.29888258385472,,,,,,,,,,,,,,,,,,,,,,,,,,,,,,,103,001,2021_Sep_22_0919,joplin1,2021.2.3,60.09513068660871,
_train_cond.csv,0 0 1 1 1 1 1 1 0 0,6,categoryA,f,,,0,7,7,3,2,3,31,6,,,,,,,,,,,,,,,,,,,j,0,0.49243258382193744,,,,,,,,,,,,,,,,,,,,,,,,,,,,,,,103,001,2021_Sep_22_0919,joplin1,2021.2.3,60.09513068660871,
_train_cond.csv,1 1 0 1 1 1 1 0 1 1,8,categoryA,f,,,0,7,7,3,2,4,32,5,,,,,,,,,,,,,,,,,,,f,1,0.3575712498277426,,,,,,,,,,,,,,,,,,,,,,,,,,,,,,,103,001,2021_Sep_22_0919,joplin1,2021.2.3,60.09513068660871,
_train_cond.csv,1 1 0 0 0 0 0 0 1 1,4,categoryB,j,,,0,7,7,3,2,5,33,13,,,,,,,,,,,,,,,,,,,f,0,0.29332650010474026,,,,,,,,,,,,,,,,,,,,,,,,,,,,,,,103,001,2021_Sep_22_0919,joplin1,2021.2.3,60.09513068660871,
_train_cond.csv,1 1 1 0 1 1 0 1 1 1,8,categoryA,f,,,0,7,7,3,2,6,34,4,,,,,,,,,,,,,,,,,,,f,1,0.29527729097753763,,,,,,,,,,,,,,,,,,,,,,,,,,,,,,,103,001,2021_Sep_22_0919,joplin1,2021.2.3,60.09513068660871,
_train_cond.csv,1 1 1 0 0 0 0 1 1 1,6,categoryA,f,,,0,7,7,3,2,7,35,3,,,,,,,,,,,,,,,,,,,f,1,0.29652120801620185,,,,,,,,,,,,,,,,,,,,,,,,,,,,,,,103,001,2021_Sep_22_0919,joplin1,2021.2.3,60.09513068660871,
_train_cond.csv,0 0 0 1 0 0 1 0 0 0,2,categoryB,j,,,0,7,7,3,2,8,36,11,,,,,,,,,,,,,,,,,,,j,1,0.28249658294953406,,,,,,,,,,,,,,,,,,,,,,,,,,,,,,,103,001,2021_Sep_22_0919,joplin1,2021.2.3,60.09513068660871,
_train_cond.csv,0 0 1 0 0 0 0 1 0 0,2,categoryB,j,,,0,7,7,3,2,9,37,12,,,,,,,,,,,,,,,,,,,j,1,0.27696149982511997,,,,,,,,,,,,,,,,,,,,,,,,,,,,,,,103,001,2021_Sep_22_0919,joplin1,2021.2.3,60.09513068660871,
_train_cond.csv,0 1 0 0 0 0 0 0 1 0,2,categoryB,j,,,0,7,7,3,2,10,38,8,,,,,,,,,,,,,,,,,,,j,1,0.27816124982200563,,,,,,,,,,,,,,,,,,,,,,,,,,,,,,,103,001,2021_Sep_22_0919,joplin1,2021.2.3,60.09513068660871,
_train_cond.csv,0 1 1 1 1 1 1 1 1 0,8,categoryA,f,,,0,7,7,3,2,11,39,0,,,,,,,,,,,,,,,,,,,j,0,0.3455255830194801,,,,,,,,,,,,,,,,,,,,,,,,,,,,,,,103,001,2021_Sep_22_0919,joplin1,2021.2.3,60.09513068660871,
_train_cond.csv,1 0 0 0 0 0 0 0 0 1,2,categoryB,j,,,0,7,7,3,2,12,40,7,,,,,,,,,,,,,,,,,,,f,0,0.31408854201436043,,,,,,,,,,,,,,,,,,,,,,,,,,,,,,,103,001,2021_Sep_22_0919,joplin1,2021.2.3,60.09513068660871,
_train_cond.csv,1 1 0 1 0 0 1 0 1 1,6,categoryA,f,,,0,7,7,3,2,13,41,2,,,,,,,,,,,,,,,,,,,f,1,0.25057779205963016,,,,,,,,,,,,,,,,,,,,,,,,,,,,,,,103,001,2021_Sep_22_0919,joplin1,2021.2.3,60.09513068660871,
_train_cond.csv,,,,,,,0,7,7,3,,,,,,,,,,,,,,,,,,,,,,,,,,space,11.621556584024802,,,,,,,,,,,,,,,,,,,,,,,,,,,,,103,001,2021_Sep_22_0919,joplin1,2021.2.3,60.09513068660871,
,,,,,,,,,,,,,,,,,,,,,,,,,,,,,,,,,,,,,,q,38.70973483286798,,,,,,,,,,,,,,,,,,,,,,,,,,,103,001,2021_Sep_22_0919,joplin1,2021.2.3,60.09513068660871,
,,,,,,,,,,,,,,,,,,,,,,,,,,,,,,,,,,,,,,,,f,25.120882250135764,,,,,,,,,,,,,,,,,,,,,,,,,103,001,2021_Sep_22_0919,joplin1,2021.2.3,60.09513068660871,
,,,,,,,,,,,,,,,,,,,,,,,,,,,,,,,,,,,,,,,,,,space,6.057831457816064,,,,,,,,,,,,,,,,,,,,,,,103,001,2021_Sep_22_0919,joplin1,2021.2.3,60.09513068660871,
,,,,,,,,,,,,,,,,,,,,,,,,,,,,,,,,,,,,,,,,,,,,space,8.798317832872272,,,,,,,,,,,,,,,,,,,,,103,001,2021_Sep_22_0919,joplin1,2021.2.3,60.09513068660871,
,1 1 1 1 0 1 1 1 0 1,8,categoryA,f,genfile1.csv,0,,,,,,,,,0,0,0,0,0,0,0,21,,,,,,,,,,,,,,,,,,,,,,,,j,0,0.205173583002761,,,,,,,,,,,,,,,,,,103,001,2021_Sep_22_0919,joplin1,2021.2.3,60.09513068660871,
,0 0 0 1 0 0 1 0 0 0,2,categoryB,j,genfile1.csv,1,,,,,,,,,0,0,0,0,0,1,1,13,,,,,,,,,,,,,,,,,,,,,,,,j,1,0.255547541892156,,,,,,,,,,,,,,,,,,103,001,2021_Sep_22_0919,joplin1,2021.2.3,60.09513068660871,
,0 1 1 0 1 0 1 0 0 0,4,categoryB,j,genfile1.csv,0,,,,,,,,,0,0,0,0,0,2,2,39,,,,,,,,,,,,,,,,,,,,,,,,j,1,0.28917641704902053,,,,,,,,,,,,,,,,,,103,001,2021_Sep_22_0919,joplin1,2021.2.3,60.09513068660871,
,0 1 1 0 1 1 0 1 1 0,6,categoryA,f,genfile1.csv,0,,,,,,,,,0,0,0,0,0,3,3,33,,,,,,,,,,,,,,,,,,,,,,,,j,0,0.4183205000590533,,,,,,,,,,,,,,,,,,103,001,2021_Sep_22_0919,joplin1,2021.2.3,60.09513068660871,
,0 1 1 1 0 1 1 1 1 1,8,categoryA,f,genfile1.csv,0,,,,,,,,,0,0,0,0,0,4,4,22,,,,,,,,,,,,,,,,,,,,,,,,f,1,0.21393037494271994,,,,,,,,,,,,,,,,,,103,001,2021_Sep_22_0919,joplin1,2021.2.3,60.09513068660871,
,0 0 0 0 0 1 0 0 1 1,3,categoryB,j,genfile1.csv,0,,,,,,,,,0,0,0,0,0,5,5,45,,,,,,,,,,,,,,,,,,,,,,,,f,0,0.24956075008958578,,,,,,,,,,,,,,,,,,103,001,2021_Sep_22_0919,joplin1,2021.2.3,60.09513068660871,
,0 0 0 0 0 0 0 1 0 0,1,categoryB,j,genfile1.csv,0,,,,,,,,,0,0,0,0,0,6,6,51,,,,,,,,,,,,,,,,,,,,,,,,j,1,0.2592130829580128,,,,,,,,,,,,,,,,,,103,001,2021_Sep_22_0919,joplin1,2021.2.3,60.09513068660871,
,0 0 0 0 0 0 0 0 0 0,0,categoryB,j,genfile1.csv,0,,,,,,,,,0,0,0,0,0,7,7,0,,,,,,,,,,,,,,,,,,,,,,,,j,1,0.22060424997471273,,,,,,,,,,,,,,,,,,103,001,2021_Sep_22_0919,joplin1,2021.2.3,60.09513068660871,
,1 0 0 1 1 0 1 1 1 0,6,categoryA,f,genfile1.csv,0,,,,,,,,,0,0,0,0,0,8,8,32,,,,,,,,,,,,,,,,,,,,,,,,f,1,0.08924116706475616,,,,,,,,,,,,,,,,,,103,001,2021_Sep_22_0919,joplin1,2021.2.3,60.09513068660871,
,1 1 1 1 1 1 1 1 0 1,9,categoryA,f,genfile1.csv,0,,,,,,,,,0,0,0,0,0,9,9,20,,,,,,,,,,,,,,,,,,,,,,,,f,1,0.23293879185803235,,,,,,,,,,,,,,,,,,103,001,2021_Sep_22_0919,joplin1,2021.2.3,60.09513068660871,
,1 1 1 0 0 0 0 1 1 1,6,categoryA,f,genfile1.csv,1,,,,,,,,,0,0,0,0,0,10,10,5,,,,,,,,,,,,,,,,,,,,,,,,f,1,0.27695066714659333,,,,,,,,,,,,,,,,,,103,001,2021_Sep_22_0919,joplin1,2021.2.3,60.09513068660871,
,1 1 0 0 0 0 0 0 1 1,4,categoryB,j,genfile1.csv,1,,,,,,,,,0,0,0,0,0,11,11,15,,,,,,,,,,,,,,,,,,,,,,,,f,0,0.2573675001040101,,,,,,,,,,,,,,,,,,103,001,2021_Sep_22_0919,joplin1,2021.2.3,60.09513068660871,
,1 1 1 0 0 1 0 1 1 1,7,categoryA,f,genfile1.csv,0,,,,,,,,,0,0,0,0,0,12,12,27,,,,,,,,,,,,,,,,,,,,,,,,f,1,0.25854437495581806,,,,,,,,,,,,,,,,,,103,001,2021_Sep_22_0919,joplin1,2021.2.3,60.09513068660871,
,0 0 1 0 1 1 0 1 0 0,4,categoryB,j,genfile1.csv,1,,,,,,,,,0,0,0,0,0,13,13,11,,,,,,,,,,,,,,,,,,,,,,,,f,0,0.2463465000037104,,,,,,,,,,,,,,,,,,103,001,2021_Sep_22_0919,joplin1,2021.2.3,60.09513068660871,
,0 0 1 0 1 1 1 0 0 0,4,categoryB,j,genfile1.csv,0,,,,,,,,,0,0,0,0,0,14,14,38,,,,,,,,,,,,,,,,,,,,,,,,f,0,0.12993270880542696,,,,,,,,,,,,,,,,,,103,001,2021_Sep_22_0919,joplin1,2021.2.3,60.09513068660871,
,1 0 0 0 0 0 0 0 0 1,2,categoryB,j,genfile1.csv,1,,,,,,,,,0,0,0,0,0,15,15,9,,,,,,,,,,,,,,,,,,,,,,,,f,0,0.2891994579695165,,,,,,,,,,,,,,,,,,103,001,2021_Sep_22_0919,joplin1,2021.2.3,60.09513068660871,
,0 0 1 1 0 0 0 0 0 0,2,categoryB,j,genfile1.csv,0,,,,,,,,,0,0,0,0,0,16,16,46,,,,,,,,,,,,,,,,,,,,,,,,j,1,0.24161766609176993,,,,,,,,,,,,,,,,,,103,001,2021_Sep_22_0919,joplin1,2021.2.3,60.09513068660871,
,0 0 1 0 1 1 1 1 1 1,7,categoryA,f,genfile1.csv,0,,,,,,,,,0,0,0,0,0,17,17,28,,,,,,,,,,,,,,,,,,,,,,,,j,0,0.2629264169372618,,,,,,,,,,,,,,,,,,103,001,2021_Sep_22_0919,joplin1,2021.2.3,60.09513068660871,
,0 1 1 1 0 1 0 0 0 0,4,categoryB,j,genfile1.csv,0,,,,,,,,,0,0,0,0,0,18,18,36,,,,,,,,,,,,,,,,,,,,,,,,j,1,0.31196833308786154,,,,,,,,,,,,,,,,,,103,001,2021_Sep_22_0919,joplin1,2021.2.3,60.09513068660871,
,0 0 0 1 0 0 0 0 0 1,2,categoryB,j,genfile1.csv,0,,,,,,,,,0,0,0,0,0,19,19,47,,,,,,,,,,,,,,,,,,,,,,,,f,0,0.2636089159641415,,,,,,,,,,,,,,,,,,103,001,2021_Sep_22_0919,joplin1,2021.2.3,60.09513068660871,
,0 1 0 0 0 0 0 0 1 0,2,categoryB,j,genfile1.csv,1,,,,,,,,,0,0,0,0,0,20,20,10,,,,,,,,,,,,,,,,,,,,,,,,j,1,0.24272037507034838,,,,,,,,,,,,,,,,,,103,001,2021_Sep_22_0919,joplin1,2021.2.3,60.09513068660871,
,1 0 0 1 1 1 0 0 0 0,4,categoryB,j,genfile1.csv,0,,,,,,,,,0,0,0,0,0,21,21,37,,,,,,,,,,,,,,,,,,,,,,,,j,1,0.2862680829130113,,,,,,,,,,,,,,,,,,103,001,2021_Sep_22_0919,joplin1,2021.2.3,60.09513068660871,
,1 1 1 1 1 0 1 1 1 1,9,categoryA,f,genfile1.csv,0,,,,,,,,,0,0,0,0,0,22,22,17,,,,,,,,,,,,,,,,,,,,,,,,f,1,0.14359212503768504,,,,,,,,,,,,,,,,,,103,001,2021_Sep_22_0919,joplin1,2021.2.3,60.09513068660871,
,1 1 1 1 1 1 0 1 1 1,9,categoryA,f,genfile1.csv,0,,,,,,,,,0,0,0,0,0,23,23,19,,,,,,,,,,,,,,,,,,,,,,,,f,1,0.26301316590979695,,,,,,,,,,,,,,,,,,103,001,2021_Sep_22_0919,joplin1,2021.2.3,60.09513068660871,
,1 1 0 1 1 1 1 0 1 1,8,categoryA,f,genfile1.csv,1,,,,,,,,,0,0,0,0,0,24,24,7,,,,,,,,,,,,,,,,,,,,,,,,f,1,0.28238137485459447,,,,,,,,,,,,,,,,,,103,001,2021_Sep_22_0919,joplin1,2021.2.3,60.09513068660871,
,1 1 1 0 1 1 1 0 0 0,6,categoryA,f,genfile1.csv,0,,,,,,,,,0,0,0,0,0,25,25,34,,,,,,,,,,,,,,,,,,,,,,,,f,1,0.3562742918729782,,,,,,,,,,,,,,,,,,103,001,2021_Sep_22_0919,joplin1,2021.2.3,60.09513068660871,
,0 1 0 0 0 0 0 0 0 0,1,categoryB,j,genfile1.csv,0,,,,,,,,,0,0,0,0,0,26,26,54,,,,,,,,,,,,,,,,,,,,,,,,j,1,0.258846125099808,,,,,,,,,,,,,,,,,,103,001,2021_Sep_22_0919,joplin1,2021.2.3,60.09513068660871,
,0 0 1 1 1 1 1 1 0 0,6,categoryA,f,genfile1.csv,1,,,,,,,,,0,0,0,0,0,27,27,8,,,,,,,,,,,,,,,,,,,,,,,,f,1,0.29297062498517334,,,,,,,,,,,,,,,,,,103,001,2021_Sep_22_0919,joplin1,2021.2.3,60.09513068660871,
,0 0 0 1 0 0 0 0 0 0,1,categoryB,j,genfile1.csv,0,,,,,,,,,0,0,0,0,0,28,28,52,,,,,,,,,,,,,,,,,,,,,,,,f,0,0.25429641688242555,,,,,,,,,,,,,,,,,,103,001,2021_Sep_22_0919,joplin1,2021.2.3,60.09513068660871,
,0 0 0 0 0 1 0 0 0 0,1,categoryB,j,genfile1.csv,0,,,,,,,,,0,0,0,0,0,29,29,55,,,,,,,,,,,,,,,,,,,,,,,,j,1,0.22508287499658763,,,,,,,,,,,,,,,,,,103,001,2021_Sep_22_0919,joplin1,2021.2.3,60.09513068660871,
,0 0 0 0 1 0 1 0 0 1,3,categoryB,j,genfile1.csv,0,,,,,,,,,0,0,0,0,0,30,30,42,,,,,,,,,,,,,,,,,,,,,,,,j,1,0.22028500004671514,,,,,,,,,,,,,,,,,,103,001,2021_Sep_22_0919,joplin1,2021.2.3,60.09513068660871,
,1 1 0 1 1 1 0 1 1 1,8,categoryA,f,genfile1.csv,0,,,,,,,,,0,0,0,0,0,31,31,24,,,,,,,,,,,,,,,,,,,,,,,,f,1,0.26350075006484985,,,,,,,,,,,,,,,,,,103,001,2021_Sep_22_0919,joplin1,2021.2.3,60.09513068660871,
,1 0 1 1 1 1 1 1 0 1,8,categoryA,f,genfile1.csv,1,,,,,,,,,0,0,0,0,0,32,32,3,,,,,,,,,,,,,,,,,,,,,,,,f,1,0.25096195796504617,,,,,,,,,,,,,,,,,,103,001,2021_Sep_22_0919,joplin1,2021.2.3,60.09513068660871,
,1 1 1 1 0 1 1 1 1 0,8,categoryA,f,genfile1.csv,0,,,,,,,,,0,0,0,0,0,33,33,25,,,,,,,,,,,,,,,,,,,,,,,,f,1,0.2439162500668317,,,,,,,,,,,,,,,,,,103,001,2021_Sep_22_0919,joplin1,2021.2.3,60.09513068660871,
,0 1 1 0 0 1 0 0 0 1,4,categoryB,j,genfile1.csv,0,,,,,,,,,0,0,0,0,0,34,34,40,,,,,,,,,,,,,,,,,,,,,,,,f,0,0.30160716618411243,,,,,,,,,,,,,,,,,,103,001,2021_Sep_22_0919,joplin1,2021.2.3,60.09513068660871,
,0 1 1 1 1 1 0 1 1 1,8,categoryA,f,genfile1.csv,0,,,,,,,,,0,0,0,0,0,35,35,23,,,,,,,,,,,,,,,,,,,,,,,,f,1,0.2780057080090046,,,,,,,,,,,,,,,,,,103,001,2021_Sep_22_0919,joplin1,2021.2.3,60.09513068660871,
,1 1 0 1 0 0 1 0 1 1,6,categoryA,f,genfile1.csv,1,,,,,,,,,0,0,0,0,0,36,36,4,,,,,,,,,,,,,,,,,,,,,,,,f,1,0.22553395805880427,,,,,,,,,,,,,,,,,,103,001,2021_Sep_22_0919,joplin1,2021.2.3,60.09513068660871,
,0 0 1 0 0 0 0 0 0 1,2,categoryB,j,genfile1.csv,0,,,,,,,,,0,0,0,0,0,37,37,48,,,,,,,,,,,,,,,,,,,,,,,,f,0,0.2532782079651952,,,,,,,,,,,,,,,,,,103,001,2021_Sep_22_0919,joplin1,2021.2.3,60.09513068660871,
,0 1 1 1 1 1 1 1 1 1,9,categoryA,f,genfile1.csv,0,,,,,,,,,0,0,0,0,0,38,38,16,,,,,,,,,,,,,,,,,,,,,,,,f,1,0.23344650003127754,,,,,,,,,,,,,,,,,,103,001,2021_Sep_22_0919,joplin1,2021.2.3,60.09513068660871,
,0 0 1 0 0 1 1 0 0 0,3,categoryB,j,genfile1.csv,0,,,,,,,,,0,0,0,0,0,39,39,43,,,,,,,,,,,,,,,,,,,,,,,,j,1,0.09131375001743436,,,,,,,,,,,,,,,,,,103,001,2021_Sep_22_0919,joplin1,2021.2.3,60.09513068660871,
,1 1 1 1 1 1 1 1 1 1,10,categoryA,f,genfile1.csv,0,,,,,,,,,0,0,0,0,0,40,40,1,,,,,,,,,,,,,,,,,,,,,,,,f,1,0.3727886669803411,,,,,,,,,,,,,,,,,,103,001,2021_Sep_22_0919,joplin1,2021.2.3,60.09513068660871,
,0 0 0 1 1 1 1 0 0 0,4,categoryB,j,genfile1.csv,1,,,,,,,,,0,0,0,0,0,41,41,12,,,,,,,,,,,,,,,,,,,,,,,,j,1,0.2847719171550125,,,,,,,,,,,,,,,,,,103,001,2021_Sep_22_0919,joplin1,2021.2.3,60.09513068660871,
,0 0 1 0 0 0 0 1 0 0,2,categoryB,j,genfile1.csv,1,,,,,,,,,0,0,0,0,0,42,42,14,,,,,,,,,,,,,,,,,,,,,,,,j,1,0.21399833401665092,,,,,,,,,,,,,,,,,,103,001,2021_Sep_22_0919,joplin1,2021.2.3,60.09513068660871,
,0 1 0 0 0 1 0 0 1 0,3,categoryB,j,genfile1.csv,0,,,,,,,,,0,0,0,0,0,43,43,41,,,,,,,,,,,,,,,,,,,,,,,,j,1,0.3384204169269651,,,,,,,,,,,,,,,,,,103,001,2021_Sep_22_0919,joplin1,2021.2.3,60.09513068660871,
,0 0 0 0 0 0 0 0 0 1,1,categoryB,j,genfile1.csv,0,,,,,,,,,0,0,0,0,0,44,44,53,,,,,,,,,,,,,,,,,,,,,,,,f,0,0.17713125003501773,,,,,,,,,,,,,,,,,,103,001,2021_Sep_22_0919,joplin1,2021.2.3,60.09513068660871,
,1 1 1 1 1 1 1 1 1 0,9,categoryA,f,genfile1.csv,0,,,,,,,,,0,0,0,0,0,45,45,18,,,,,,,,,,,,,,,,,,,,,,,,f,1,0.2308754581026733,,,,,,,,,,,,,,,,,,103,001,2021_Sep_22_0919,joplin1,2021.2.3,60.09513068660871,
,1 1 0 1 0 0 0 1 1 1,6,categoryA,f,genfile1.csv,0,,,,,,,,,0,0,0,0,0,46,46,31,,,,,,,,,,,,,,,,,,,,,,,,f,1,0.5150282920803875,,,,,,,,,,,,,,,,,,103,001,2021_Sep_22_0919,joplin1,2021.2.3,60.09513068660871,
,1 1 0 1 1 0 0 1 1 1,7,categoryA,f,genfile1.csv,0,,,,,,,,,0,0,0,0,0,47,47,30,,,,,,,,,,,,,,,,,,,,,,,,f,1,0.25078308302909136,,,,,,,,,,,,,,,,,,103,001,2021_Sep_22_0919,joplin1,2021.2.3,60.09513068660871,
,0 0 0 1 1 0 0 0 0 0,2,categoryB,j,genfile1.csv,0,,,,,,,,,0,0,0,0,0,48,48,50,,,,,,,,,,,,,,,,,,,,,,,,j,1,0.21344991703517735,,,,,,,,,,,,,,,,,,103,001,2021_Sep_22_0919,joplin1,2021.2.3,60.09513068660871,
,1 1 1 0 1 1 0 1 1 1,8,categoryA,f,genfile1.csv,1,,,,,,,,,0,0,0,0,0,49,49,6,,,,,,,,,,,,,,,,,,,,,,,,f,1,0.21721554221585393,,,,,,,,,,,,,,,,,,103,001,2021_Sep_22_0919,joplin1,2021.2.3,60.09513068660871,
,0 0 0 0 1 1 0 0 0 1,3,categoryB,j,genfile1.csv,0,,,,,,,,,0,0,0,0,0,50,50,44,,,,,,,,,,,,,,,,,,,,,,,,j,1,0.23714879201725125,,,,,,,,,,,,,,,,,,103,001,2021_Sep_22_0919,joplin1,2021.2.3,60.09513068660871,
,0 1 1 1 1 1 1 1 1 0,8,categoryA,f,genfile1.csv,1,,,,,,,,,0,0,0,0,0,51,51,2,,,,,,,,,,,,,,,,,,,,,,,,j,0,0.19378412514925003,,,,,,,,,,,,,,,,,,103,001,2021_Sep_22_0919,joplin1,2021.2.3,60.09513068660871,
,0 0 0 1 0 0 0 0 1 0,2,categoryB,j,genfile1.csv,0,,,,,,,,,0,0,0,0,0,52,52,49,,,,,,,,,,,,,,,,,,,,,,,,j,1,0.27895079110749066,,,,,,,,,,,,,,,,,,103,001,2021_Sep_22_0919,joplin1,2021.2.3,60.09513068660871,
,1 0 0 0 1 1 1 1 1 1,7,categoryA,f,genfile1.csv,0,,,,,,,,,0,0,0,0,0,53,53,26,,,,,,,,,,,,,,,,,,,,,,,,f,1,0.1053677499294281,,,,,,,,,,,,,,,,,,103,001,2021_Sep_22_0919,joplin1,2021.2.3,60.09513068660871,
,1 1 0 0 1 1 0 1 0 1,6,categoryA,f,genfile1.csv,0,,,,,,,,,0,0,0,0,0,54,54,35,,,,,,,,,,,,,,,,,,,,,,,,f,1,0.232187082991004,,,,,,,,,,,,,,,,,,103,001,2021_Sep_22_0919,joplin1,2021.2.3,60.09513068660871,
,1 1 0 1 1 1 0 1 0 1,7,categoryA,f,genfile1.csv,0,,,,,,,,,0,0,0,0,0,55,55,29,,,,,,,,,,,,,,,,,,,,,,,,f,1,0.22611341695301235,,,,,,,,,,,,,,,,,,103,001,2021_Sep_22_0919,joplin1,2021.2.3,60.09513068660871,
,,,,,genfile1.csv,,,,,,,,,,0,0,0,0,,,,,,,,,,,,,,,,,,space,1.8394842080306262,,,,,,,,,,,,,,,,,,,,,,,,,,,,,103,001,2021_Sep_22_0919,joplin1,2021.2.3,60.09513068660871,
,0 0 0 1 0 1 0 0 0 0,2,categoryB,j,genfile2.csv,0,,,,,,,,,0,1,1,1,0,0,0,49,,,,,,,,,,,,,,,,,,,,,,,,j,1,0.2724936669692397,,,,,,,,,,,,,,,,,,103,001,2021_Sep_22_0919,joplin1,2021.2.3,60.09513068660871,
,0 0 0 1 1 1 0 0 1 0,4,categoryB,j,genfile2.csv,0,,,,,,,,,0,1,1,1,0,1,1,38,,,,,,,,,,,,,,,,,,,,,,,,j,1,0.17777525004930794,,,,,,,,,,,,,,,,,,103,001,2021_Sep_22_0919,joplin1,2021.2.3,60.09513068660871,
,0 1 0 0 0 0 0 0 1 1,3,categoryB,j,genfile2.csv,0,,,,,,,,,0,1,1,1,0,2,2,44,,,,,,,,,,,,,,,,,,,,,,,,f,0,0.20732587506063282,,,,,,,,,,,,,,,,,,103,001,2021_Sep_22_0919,joplin1,2021.2.3,60.09513068660871,
,1 0 1 1 1 1 1 1 0 1,8,categoryA,f,genfile2.csv,1,,,,,,,,,0,1,1,1,0,3,3,3,,,,,,,,,,,,,,,,,,,,,,,,j,0,0.10147758387029171,,,,,,,,,,,,,,,,,,103,001,2021_Sep_22_0919,joplin1,2021.2.3,60.09513068660871,
,1 1 0 1 1 1 1 1 1 1,9,categoryA,f,genfile2.csv,0,,,,,,,,,0,1,1,1,0,4,4,19,,,,,,,,,,,,,,,,,,,,,,,,f,1,0.22216316685080528,,,,,,,,,,,,,,,,,,103,001,2021_Sep_22_0919,joplin1,2021.2.3,60.09513068660871,
,0 0 1 1 0 0 0 1 1 0,4,categoryB,j,genfile2.csv,0,,,,,,,,,0,1,1,1,0,5,5,40,,,,,,,,,,,,,,,,,,,,,,,,j,1,0.058659167028963566,,,,,,,,,,,,,,,,,,103,001,2021_Sep_22_0919,joplin1,2021.2.3,60.09513068660871,
,1 1 0 0 0 0 0 0 1 1,4,categoryB,j,genfile2.csv,1,,,,,,,,,0,1,1,1,0,6,6,15,,,,,,,,,,,,,,,,,,,,,,,,f,0,0.2290724168997258,,,,,,,,,,,,,,,,,,103,001,2021_Sep_22_0919,joplin1,2021.2.3,60.09513068660871,
,1 1 1 1 1 1 1 1 1 1,10,categoryA,f,genfile2.csv,0,,,,,,,,,0,1,1,1,0,7,7,1,,,,,,,,,,,,,,,,,,,,,,,,f,1,0.25046725012362003,,,,,,,,,,,,,,,,,,103,001,2021_Sep_22_0919,joplin1,2021.2.3,60.09513068660871,
,0 0 0 0 0 0 0 0 0 0,0,categoryB,j,genfile2.csv,0,,,,,,,,,0,1,1,1,0,8,8,0,,,,,,,,,,,,,,,,,,,,,,,,j,1,0.1021289590280503,,,,,,,,,,,,,,,,,,103,001,2021_Sep_22_0919,joplin1,2021.2.3,60.09513068660871,
,0 1 1 0 0 1 1 1 1 1,7,categoryA,f,genfile2.csv,0,,,,,,,,,0,1,1,1,0,9,9,29,,,,,,,,,,,,,,,,,,,,,,,,f,1,0.3794450000859797,,,,,,,,,,,,,,,,,,103,001,2021_Sep_22_0919,joplin1,2021.2.3,60.09513068660871,
,1 1 1 0 1 1 1 1 1 1,9,categoryA,f,genfile2.csv,0,,,,,,,,,0,1,1,1,0,10,10,20,,,,,,,,,,,,,,,,,,,,,,,,f,1,0.2737322498578578,,,,,,,,,,,,,,,,,,103,001,2021_Sep_22_0919,joplin1,2021.2.3,60.09513068660871,
,1 1 1 1 0 0 0 1 0 1,6,categoryA,f,genfile2.csv,0,,,,,,,,,0,1,1,1,0,11,11,31,,,,,,,,,,,,,,,,,,,,,,,,f,1,0.22752812504768372,,,,,,,,,,,,,,,,,,103,001,2021_Sep_22_0919,joplin1,2021.2.3,60.09513068660871,
,1 1 1 1 0 1 1 1 1 1,9,categoryA,f,genfile2.csv,0,,,,,,,,,0,1,1,1,0,12,12,17,,,,,,,,,,,,,,,,,,,,,,,,f,1,0.5965946670621634,,,,,,,,,,,,,,,,,,103,001,2021_Sep_22_0919,joplin1,2021.2.3,60.09513068660871,
,0 0 0 0 1 0 0 0 0 0,1,categoryB,j,genfile2.csv,0,,,,,,,,,0,1,1,1,0,13,13,54,,,,,,,,,,,,,,,,,,,,,,,,j,1,0.2984368330799043,,,,,,,,,,,,,,,,,,103,001,2021_Sep_22_0919,joplin1,2021.2.3,60.09513068660871,
,0 0 1 0 0 0 0 0 0 0,1,categoryB,j,genfile2.csv,0,,,,,,,,,0,1,1,1,0,14,14,55,,,,,,,,,,,,,,,,,,,,,,,,j,1,0.23357783304527402,,,,,,,,,,,,,,,,,,103,001,2021_Sep_22_0919,joplin1,2021.2.3,60.09513068660871,
,1 0 0 0 0 0 0 0 0 1,2,categoryB,j,genfile2.csv,1,,,,,,,,,0,1,1,1,0,15,15,9,,,,,,,,,,,,,,,,,,,,,,,,f,0,0.20647824998013675,,,,,,,,,,,,,,,,,,103,001,2021_Sep_22_0919,joplin1,2021.2.3,60.09513068660871,
,0 0 1 0 0 1 1 1 1 1,6,categoryA,f,genfile2.csv,0,,,,,,,,,0,1,1,1,0,16,16,32,,,,,,,,,,,,,,,,,,,,,,,,j,0,0.21806708397343755,,,,,,,,,,,,,,,,,,103,001,2021_Sep_22_0919,joplin1,2021.2.3,60.09513068660871,
,1 1 1 1 0 1 0 0 1 1,7,categoryA,f,genfile2.csv,0,,,,,,,,,0,1,1,1,0,17,17,27,,,,,,,,,,,,,,,,,,,,,,,,f,1,0.26160808303393424,,,,,,,,,,,,,,,,,,103,001,2021_Sep_22_0919,joplin1,2021.2.3,60.09513068660871,
,0 1 0 0 0 1 1 0 0 0,3,categoryB,j,genfile2.csv,0,,,,,,,,,0,1,1,1,0,18,18,45,,,,,,,,,,,,,,,,,,,,,,,,f,0,0.24692375003360212,,,,,,,,,,,,,,,,,,103,001,2021_Sep_22_0919,joplin1,2021.2.3,60.09513068660871,
,0 0 1 1 1 1 1 1 0 0,6,categoryA,f,genfile2.csv,1,,,,,,,,,0,1,1,1,0,19,19,8,,,,,,,,,,,,,,,,,,,,,,,,j,0,0.24297533393837512,,,,,,,,,,,,,,,,,,103,001,2021_Sep_22_0919,joplin1,2021.2.3,60.09513068660871,
,1 1 0 1 0 0 1 0 1 1,6,categoryA,f,genfile2.csv,1,,,,,,,,,0,1,1,1,0,20,20,4,,,,,,,,,,,,,,,,,,,,,,,,f,1,0.1989049999974668,,,,,,,,,,,,,,,,,,103,001,2021_Sep_22_0919,joplin1,2021.2.3,60.09513068660871,
,1 1 1 1 1 1 0 1 1 0,8,categoryA,f,genfile2.csv,0,,,,,,,,,0,1,1,1,0,21,21,23,,,,,,,,,,,,,,,,,,,,,,,,f,1,0.34781025000847876,,,,,,,,,,,,,,,,,,103,001,2021_Sep_22_0919,joplin1,2021.2.3,60.09513068660871,
,0 1 1 0 1 0 1 1 1 1,7,categoryA,f,genfile2.csv,0,,,,,,,,,0,1,1,1,0,22,22,28,,,,,,,,,,,,,,,,,,,,,,,,f,1,0.2348507500719279,,,,,,,,,,,,,,,,,,103,001,2021_Sep_22_0919,joplin1,2021.2.3,60.09513068660871,
,0 0 0 1 1 1 1 0 0 0,4,categoryB,j,genfile2.csv,1,,,,,,,,,0,1,1,1,0,23,23,12,,,,,,,,,,,,,,,,,,,,,,,,j,1,0.2620842920150608,,,,,,,,,,,,,,,,,,103,001,2021_Sep_22_0919,joplin1,2021.2.3,60.09513068660871,
,1 1 0 0 1 0 0 0 0 1,4,categoryB,j,genfile2.csv,0,,,,,,,,,0,1,1,1,0,24,24,39,,,,,,,,,,,,,,,,,,,,,,,,j,1,0.24854154186323285,,,,,,,,,,,,,,,,,,103,001,2021_Sep_22_0919,joplin1,2021.2.3,60.09513068660871,
,0 1 1 0 0 0 1 0 1 0,4,categoryB,j,genfile2.csv,0,,,,,,,,,0,1,1,1,0,25,25,37,,,,,,,,,,,,,,,,,,,,,,,,j,1,0.2580519581679255,,,,,,,,,,,,,,,,,,103,001,2021_Sep_22_0919,joplin1,2021.2.3,60.09513068660871,
,0 1 0 1 0 0 1 0 0 0,3,categoryB,j,genfile2.csv,0,,,,,,,,,0,1,1,1,0,26,26,41,,,,,,,,,,,,,,,,,,,,,,,,j,1,0.23680729209445417,,,,,,,,,,,,,,,,,,103,001,2021_Sep_22_0919,joplin1,2021.2.3,60.09513068660871,
,1 1 1 0 0 0 0 1 1 1,6,categoryA,f,genfile2.csv,1,,,,,,,,,0,1,1,1,0,27,27,5,,,,,,,,,,,,,,,,,,,,,,,,f,1,0.2809033750090748,,,,,,,,,,,,,,,,,,103,001,2021_Sep_22_0919,joplin1,2021.2.3,60.09513068660871,
,1 1 0 1 1 0 0 1 1 0,6,categoryA,f,genfile2.csv,0,,,,,,,,,0,1,1,1,0,28,28,33,,,,,,,,,,,,,,,,,,,,,,,,f,1,0.47347858315333724,,,,,,,,,,,,,,,,,,103,001,2021_Sep_22_0919,joplin1,2021.2.3,60.09513068660871,
,0 0 1 0 1 1 0 1 0 0,4,categoryB,j,genfile2.csv,1,,,,,,,,,0,1,1,1,0,29,29,11,,,,,,,,,,,,,,,,,,,,,,,,j,1,0.2521839579567313,,,,,,,,,,,,,,,,,,103,001,2021_Sep_22_0919,joplin1,2021.2.3,60.09513068660871,
,0 0 1 1 1 1 1 1 1 1,8,categoryA,f,genfile2.csv,0,,,,,,,,,0,1,1,1,0,30,30,24,,,,,,,,,,,,,,,,,,,,,,,,j,0,0.2692442499101162,,,,,,,,,,,,,,,,,,103,001,2021_Sep_22_0919,joplin1,2021.2.3,60.09513068660871,
,0 1 1 1 1 0 0 0 1 1,6,categoryA,f,genfile2.csv,0,,,,,,,,,0,1,1,1,0,31,31,35,,,,,,,,,,,,,,,,,,,,,,,,j,0,0.269185374956578,,,,,,,,,,,,,,,,,,103,001,2021_Sep_22_0919,joplin1,2021.2.3,60.09513068660871,
,1 1 0 0 1 1 1 1 0 1,7,categoryA,f,genfile2.csv,0,,,,,,,,,0,1,1,1,0,32,32,30,,,,,,,,,,,,,,,,,,,,,,,,f,1,0.26237129094079137,,,,,,,,,,,,,,,,,,103,001,2021_Sep_22_0919,joplin1,2021.2.3,60.09513068660871,
,0 1 1 1 1 1 1 1 1 0,8,categoryA,f,genfile2.csv,1,,,,,,,,,0,1,1,1,0,33,33,2,,,,,,,,,,,,,,,,,,,,,,,,f,1,0.305858250008896,,,,,,,,,,,,,,,,,,103,001,2021_Sep_22_0919,joplin1,2021.2.3,60.09513068660871,
,1 1 0 0 1 0 1 1 1 1,7,categoryA,f,genfile2.csv,0,,,,,,,,,0,1,1,1,0,34,34,26,,,,,,,,,,,,,,,,,,,,,,,,f,1,0.3049546249676496,,,,,,,,,,,,,,,,,,103,001,2021_Sep_22_0919,joplin1,2021.2.3,60.09513068660871,
,0 0 0 0 0 0 0 0 1 1,2,categoryB,j,genfile2.csv,0,,,,,,,,,0,1,1,1,0,35,35,46,,,,,,,,,,,,,,,,,,,,,,,,f,0,0.2563307920936495,,,,,,,,,,,,,,,,,,103,001,2021_Sep_22_0919,joplin1,2021.2.3,60.09513068660871,
,0 0 0 0 0 1 0 1 0 1,3,categoryB,j,genfile2.csv,0,,,,,,,,,0,1,1,1,0,36,36,42,,,,,,,,,,,,,,,,,,,,,,,,f,0,0.24996295804157853,,,,,,,,,,,,,,,,,,103,001,2021_Sep_22_0919,joplin1,2021.2.3,60.09513068660871,
,0 1 0 0 0 0 0 0 0 1,2,categoryB,j,genfile2.csv,0,,,,,,,,,0,1,1,1,0,37,37,50,,,,,,,,,,,,,,,,,,,,,,,,j,1,0.29963420890271664,,,,,,,,,,,,,,,,,,103,001,2021_Sep_22_0919,joplin1,2021.2.3,60.09513068660871,
,1 1 0 1 1 1 1 0 1 1,8,categoryA,f,genfile2.csv,1,,,,,,,,,0,1,1,1,0,38,38,7,,,,,,,,,,,,,,,,,,,,,,,,f,1,0.3495527079794556,,,,,,,,,,,,,,,,,,103,001,2021_Sep_22_0919,joplin1,2021.2.3,60.09513068660871,
,1 1 1 0 1 1 0 1 1 1,8,categoryA,f,genfile2.csv,1,,,,,,,,,0,1,1,1,0,39,39,6,,,,,,,,,,,,,,,,,,,,,,,,f,1,0.2301357500255108,,,,,,,,,,,,,,,,,,103,001,2021_Sep_22_0919,joplin1,2021.2.3,60.09513068660871,
,1 1 1 0 1 1 1 1 1 0,8,categoryA,f,genfile2.csv,0,,,,,,,,,0,1,1,1,0,40,40,25,,,,,,,,,,,,,,,,,,,,,,,,f,1,0.0977518749423325,,,,,,,,,,,,,,,,,,103,001,2021_Sep_22_0919,joplin1,2021.2.3,60.09513068660871,
,0 0 0 0 0 1 0 0 0 1,2,categoryB,j,genfile2.csv,0,,,,,,,,,0,1,1,1,0,41,41,48,,,,,,,,,,,,,,,,,,,,,,,,f,0,0.09834791603498161,,,,,,,,,,,,,,,,,,103,001,2021_Sep_22_0919,joplin1,2021.2.3,60.09513068660871,
,0 0 0 0 0 0 0 0 1 0,1,categoryB,j,genfile2.csv,0,,,,,,,,,0,1,1,1,0,42,42,53,,,,,,,,,,,,,,,,,,,,,,,,j,1,0.251209249952808,,,,,,,,,,,,,,,,,,103,001,2021_Sep_22_0919,joplin1,2021.2.3,60.09513068660871,
,1 1 1 1 1 1 1 0 1 1,9,categoryA,f,genfile2.csv,0,,,,,,,,,0,1,1,1,0,43,43,18,,,,,,,,,,,,,,,,,,,,,,,,f,1,0.2770907499361783,,,,,,,,,,,,,,,,,,103,001,2021_Sep_22_0919,joplin1,2021.2.3,60.09513068660871,
,0 0 1 0 0 0 0 1 0 0,2,categoryB,j,genfile2.csv,1,,,,,,,,,0,1,1,1,0,44,44,14,,,,,,,,,,,,,,,,,,,,,,,,j,1,0.2241402908693999,,,,,,,,,,,,,,,,,,103,001,2021_Sep_22_0919,joplin1,2021.2.3,60.09513068660871,
,0 1 0 0 0 0 1 1 0 0,3,categoryB,j,genfile2.csv,0,,,,,,,,,0,1,1,1,0,45,45,43,,,,,,,,,,,,,,,,,,,,,,,,j,1,0.259569332934916,,,,,,,,,,,,,,,,,,103,001,2021_Sep_22_0919,joplin1,2021.2.3,60.09513068660871,
,0 0 0 0 0 0 1 0 0 0,1,categoryB,j,genfile2.csv,0,,,,,,,,,0,1,1,1,0,46,46,52,,,,,,,,,,,,,,,,,,,,,,,,j,1,0.02857924997806549,,,,,,,,,,,,,,,,,,103,001,2021_Sep_22_0919,joplin1,2021.2.3,60.09513068660871,
,1 1 1 0 0 1 0 1 0 1,6,categoryA,f,genfile2.csv,0,,,,,,,,,0,1,1,1,0,47,47,34,,,,,,,,,,,,,,,,,,,,,,,,f,1,0.2408965420909226,,,,,,,,,,,,,,,,,,103,001,2021_Sep_22_0919,joplin1,2021.2.3,60.09513068660871,
,1 0 0 0 0 0 0 0 0 0,1,categoryB,j,genfile2.csv,0,,,,,,,,,0,1,1,1,0,48,48,51,,,,,,,,,,,,,,,,,,,,,,,,j,1,0.25902512506581843,,,,,,,,,,,,,,,,,,103,001,2021_Sep_22_0919,joplin1,2021.2.3,60.09513068660871,
,0 0 0 1 0 0 1 0 0 0,2,categoryB,j,genfile2.csv,1,,,,,,,,,0,1,1,1,0,49,49,13,,,,,,,,,,,,,,,,,,,,,,,,j,1,0.23823708412237465,,,,,,,,,,,,,,,,,,103,001,2021_Sep_22_0919,joplin1,2021.2.3,60.09513068660871,
,0 1 1 1 1 1 1 1 0 1,8,categoryA,f,genfile2.csv,0,,,,,,,,,0,1,1,1,0,50,50,22,,,,,,,,,,,,,,,,,,,,,,,,f,1,0.28977645793929696,,,,,,,,,,,,,,,,,,103,001,2021_Sep_22_0919,joplin1,2021.2.3,60.09513068660871,
,1 1 1 1 0 1 1 0 1 1,8,categoryA,f,genfile2.csv,0,,,,,,,,,0,1,1,1,0,51,51,21,,,,,,,,,,,,,,,,,,,,,,,,f,1,0.25832649995572865,,,,,,,,,,,,,,,,,,103,001,2021_Sep_22_0919,joplin1,2021.2.3,60.09513068660871,
,0 1 0 0 0 0 0 0 1 0,2,categoryB,j,genfile2.csv,1,,,,,,,,,0,1,1,1,0,52,52,10,,,,,,,,,,,,,,,,,,,,,,,,j,1,0.29420733312144876,,,,,,,,,,,,,,,,,,103,001,2021_Sep_22_0919,joplin1,2021.2.3,60.09513068660871,
,1 0 1 0 0 1 0 1 0 0,4,categoryB,j,genfile2.csv,0,,,,,,,,,0,1,1,1,0,53,53,36,,,,,,,,,,,,,,,,,,,,,,,,j,1,0.5321648330427706,,,,,,,,,,,,,,,,,,103,001,2021_Sep_22_0919,joplin1,2021.2.3,60.09513068660871,
,1 0 1 1 1 1 1 1 1 1,9,categoryA,f,genfile2.csv,0,,,,,,,,,0,1,1,1,0,54,54,16,,,,,,,,,,,,,,,,,,,,,,,,f,1,0.28498687501996756,,,,,,,,,,,,,,,,,,103,001,2021_Sep_22_0919,joplin1,2021.2.3,60.09513068660871,
,1 0 1 0 0 0 0 0 0 0,2,categoryB,j,genfile2.csv,0,,,,,,,,,0,1,1,1,0,55,55,47,,,,,,,,,,,,,,,,,,,,,,,,j,1,0.252438958035782,,,,,,,,,,,,,,,,,,103,001,2021_Sep_22_0919,joplin1,2021.2.3,60.09513068660871,
,,,,,genfile2.csv,,,,,,,,,,0,1,1,1,,,,,,,,,,,,,,,,,,space,8.336205042200163,,,,,,,,,,,,,,,,,,,,,,,,,,,,,103,001,2021_Sep_22_0919,joplin1,2021.2.3,60.09513068660871,
,,,,,,,,,,,,,,,,,,,,,,,,,,,,,,,,,,,,,,,,,,,,,,,,,None,,,,,,,,,,,,,,,,,103,001,2021_Sep_22_0919,joplin1,2021.2.3,60.09513068660871,
,,,,,,,,,,,,,,,,,,,,,,,,,,,,,,,,,,,,,,,,,,,,,,,,,,None,,,,,,,,,,,,,,,,103,001,2021_Sep_22_0919,joplin1,2021.2.3,60.09513068660871,
,,,,,,,,,,,,,,,,,,,,,,,,,,,,,,,,,,,,,,,,,,,,,,,,,,,0.7,radio,0.3,Are you Hispanic/Latino?,0,None,None,None,None,,,,,,,103,001,2021_Sep_22_0919,joplin1,2021.2.3,60.09513068660871,
,,,,,,,,,,,,,,,,,,,,,,,,,,,,,,,,,,,,,,,,,,,,,,,,,,,0.7,radio,0.3,Are you an American Indian or Alaska Native?,1,None,None,None,None,,,,,,,103,001,2021_Sep_22_0919,joplin1,2021.2.3,60.09513068660871,
,,,,,,,,,,,,,,,,,,,,,,,,,,,,,,,,,,,,,,,,,,,,,,,,,,,0.7,radio,0.3,Are you Asian?,2,None,None,None,None,,,,,,,103,001,2021_Sep_22_0919,joplin1,2021.2.3,60.09513068660871,
,,,,,,,,,,,,,,,,,,,,,,,,,,,,,,,,,,,,,,,,,,,,,,,,,,,0.7,radio,0.3,Are you Black or African American?,3,None,None,None,None,,,,,,,103,001,2021_Sep_22_0919,joplin1,2021.2.3,60.09513068660871,
,,,,,,,,,,,,,,,,,,,,,,,,,,,,,,,,,,,,,,,,,,,,,,,,,,,0.7,radio,0.3,Are you a Native Hawaiian or other Pacific Islander?,4,None,None,None,None,,,,,,,103,001,2021_Sep_22_0919,joplin1,2021.2.3,60.09513068660871,
,,,,,,,,,,,,,,,,,,,,,,,,,,,,,,,,,,,,,,,,,,,,,,,,,,,0.7,radio,0.3,Are you White?,5,None,None,None,None,,,,,,,103,001,2021_Sep_22_0919,joplin1,2021.2.3,60.09513068660871,
,,,,,,,,,,,,,,,,,,,,,,,,,,,,,,,,,,,,,,,,,,,,,,,,,,,0.85,radio,0.3,"Do you have any history of neurological issues such as stroke, head injury or a neurodegenerative disorder?",6,None,None,None,None,,,,,,,103,001,2021_Sep_22_0919,joplin1,2021.2.3,60.09513068660871,
,,,,,,,,,,,,,,,,,,,,,,,,,,,,,,,,,,,,,,,,,,,,,,,,,,,,,,,,,,,,None,,,,,,103,001,2021_Sep_22_0919,joplin1,2021.2.3,60.09513068660871,
,,,,,,,,,,,,,,,,,,,,,,,,,,,,,,,,,,,,,,,,,,,,,,,,,,,,,,,,,,,,,None,,,,,103,001,2021_Sep_22_0919,joplin1,2021.2.3,60.09513068660871,
,,,,,,,,,,,,,,,,,,,,,,,,,,,,,,,,,,,,,,,,,,,,,,,,,,,,,,,,,,,,,,,,None,,103,001,2021_Sep_22_0919,joplin1,2021.2.3,60.09513068660871,
,,,,,,,,,,,,,,,,,,,,,,,,,,,,,,,,,,,,,,,,,,,,,,,,,,,,,,,,,,,,,,,,,,,,,,,,
