train_set,stim_id,sums_feat,category,correct_key,gen_file,train_item,train_runs.thisRepN,train_runs.thisTrialN,train_runs.thisN,train_runs.thisIndex,train_trials.thisRepN,train_trials.thisTrialN,train_trials.thisN,train_trials.thisIndex,test_runs.thisRepN,test_runs.thisTrialN,test_runs.thisN,test_runs.thisIndex,test_trials.thisRepN,test_trials.thisTrialN,test_trials.thisN,test_trials.thisIndex,welcome_key.keys,welcome_key.rt,welcome_key.started,welcome_key.stopped,train_inst1_key.keys,train_inst1_key.rt,train_inst2_key.keys,train_inst2_key.rt,train_begin_key.keys,train_begin_key.rt,train_key.keys,train_key.corr,train_key.rt,break_key.keys,break_key.rt,key_resp.keys,key_resp.rt,test_inst1_key.keys,test_inst1_key.rt,test_inst2_key.keys,test_inst2_key.rt,test_begin_key.keys,test_begin_key.rt,test_key.keys,test_key.corr,test_key.rt,test_end_key.keys,demo_inst1_key.keys,form.questionWidth,form.type,form.respWidth,form.itemText,form.index,form.font,form.markerColor,form.response,form.rt,form_key.keys,demo_inst2_key.keys,gender_string,age_string,demo4_key.keys,typedWord,participant,session,date,expName,psychopyVersion,frameRate,
,,,,,,,,,,,,,,,,,,,,,,,space,22.748244125396013,910.6920588747598,None,,,,,,,,,,,,,,,,,,,,,,,,,,,,,,,,,,,,,,,,104,001,2021_Sep_27_1455,joplin1,2021.2.3,60.127229289998134,
,,,,,,,,,,,,,,,,,,,,,,,,,,,f,10.50441029202193,,,,,,,,,,,,,,,,,,,,,,,,,,,,,,,,,,,,,,104,001,2021_Sep_27_1455,joplin1,2021.2.3,60.127229289998134,
,,,,,,,,,,,,,,,,,,,,,,,,,,,,,space,7.7866204171441495,,,,,,,,,,,,,,,,,,,,,,,,,,,,,,,,,,,,104,001,2021_Sep_27_1455,joplin1,2021.2.3,60.127229289998134,
,,,,,,,,,,,,,,,,,,,,,,,,,,,,,,,space,2.332109000068158,,,,,,,,,,,,,,,,,,,,,,,,,,,,,,,,,,104,001,2021_Sep_27_1455,joplin1,2021.2.3,60.127229289998134,
_train_cond.csv,1 1 0 1 1 1 1 0 1 1,2,categoryB,j,,,0,0,0,0,0,0,0,12,,,,,,,,,,,,,,,,,,,j,1,1.4962924160063267,,,,,,,,,,,,,,,,,,,,,,,,,,,,,,,104,001,2021_Sep_27_1455,joplin1,2021.2.3,60.127229289998134,
_train_cond.csv,0 1 0 0 0 0 0 0 1 0,8,categoryA,f,,,0,0,0,0,0,1,1,1,,,,,,,,,,,,,,,,,,,f,1,1.3890257920138538,,,,,,,,,,,,,,,,,,,,,,,,,,,,,,,104,001,2021_Sep_27_1455,joplin1,2021.2.3,60.127229289998134,
_train_cond.csv,1 1 1 0 0 0 0 1 1 1,4,categoryB,j,,,0,0,0,0,0,2,2,10,,,,,,,,,,,,,,,,,,,j,1,0.21031487500295043,,,,,,,,,,,,,,,,,,,,,,,,,,,,,,,104,001,2021_Sep_27_1455,joplin1,2021.2.3,60.127229289998134,
_train_cond.csv,1 0 0 0 0 0 0 0 0 1,8,categoryA,f,,,0,0,0,0,0,3,3,0,,,,,,,,,,,,,,,,,,,None,0,,,,,,,,,,,,,,,,,,,,,,,,,,,,,,,,104,001,2021_Sep_27_1455,joplin1,2021.2.3,60.127229289998134,
_train_cond.csv,0 0 1 0 1 1 0 1 0 0,6,categoryA,f,,,0,0,0,0,0,4,4,2,,,,,,,,,,,,,,,,,,,f,1,0.012047416996210814,,,,,,,,,,,,,,,,,,,,,,,,,,,,,,,104,001,2021_Sep_27_1455,joplin1,2021.2.3,60.127229289998134,
_train_cond.csv,0 1 1 1 1 1 1 1 1 0,2,categoryB,j,,,0,0,0,0,0,5,5,7,,,,,,,,,,,,,,,,,,,f,0,0.8554175412282348,,,,,,,,,,,,,,,,,,,,,,,,,,,,,,,104,001,2021_Sep_27_1455,joplin1,2021.2.3,60.127229289998134,
_train_cond.csv,1 1 0 1 0 0 1 0 1 1,4,categoryB,j,,,0,0,0,0,0,6,6,9,,,,,,,,,,,,,,,,,,,j,1,1.313223207835108,,,,,,,,,,,,,,,,,,,,,,,,,,,,,,,104,001,2021_Sep_27_1455,joplin1,2021.2.3,60.127229289998134,
_train_cond.csv,1 0 1 1 1 1 1 1 0 1,2,categoryB,j,,,0,0,0,0,0,7,7,8,,,,,,,,,,,,,,,,,,,None,0,,,,,,,,,,,,,,,,,,,,,,,,,,,,,,,,104,001,2021_Sep_27_1455,joplin1,2021.2.3,60.127229289998134,
_train_cond.csv,0 0 1 1 1 1 1 1 0 0,4,categoryB,j,,,0,0,0,0,0,8,8,13,,,,,,,,,,,,,,,,,,,f,0,1.0060887499712408,,,,,,,,,,,,,,,,,,,,,,,,,,,,,,,104,001,2021_Sep_27_1455,joplin1,2021.2.3,60.127229289998134,
_train_cond.csv,1 1 0 0 0 0 0 0 1 1,6,categoryA,f,,,0,0,0,0,0,9,9,6,,,,,,,,,,,,,,,,,,,j,0,1.5553442919626832,,,,,,,,,,,,,,,,,,,,,,,,,,,,,,,104,001,2021_Sep_27_1455,joplin1,2021.2.3,60.127229289998134,
_train_cond.csv,0 0 0 1 0 0 1 0 0 0,8,categoryA,f,,,0,0,0,0,0,10,10,4,,,,,,,,,,,,,,,,,,,f,1,0.66490733390674,,,,,,,,,,,,,,,,,,,,,,,,,,,,,,,104,001,2021_Sep_27_1455,joplin1,2021.2.3,60.127229289998134,
_train_cond.csv,0 0 0 1 1 1 1 0 0 0,6,categoryA,f,,,0,0,0,0,0,11,11,3,,,,,,,,,,,,,,,,,,,f,1,0.8356238338164985,,,,,,,,,,,,,,,,,,,,,,,,,,,,,,,104,001,2021_Sep_27_1455,joplin1,2021.2.3,60.127229289998134,
_train_cond.csv,0 0 1 0 0 0 0 1 0 0,8,categoryA,f,,,0,0,0,0,0,12,12,5,,,,,,,,,,,,,,,,,,,None,0,,,,,,,,,,,,,,,,,,,,,,,,,,,,,,,,104,001,2021_Sep_27_1455,joplin1,2021.2.3,60.127229289998134,
_train_cond.csv,1 1 1 0 1 1 0 1 1 1,2,categoryB,j,,,0,0,0,0,0,13,13,11,,,,,,,,,,,,,,,,,,,j,1,0.6831261669285595,,,,,,,,,,,,,,,,,,,,,,,,,,,,,,,104,001,2021_Sep_27_1455,joplin1,2021.2.3,60.127229289998134,
_train_cond.csv,1 1 0 1 0 0 1 0 1 1,4,categoryB,j,,,0,0,0,0,1,0,14,9,,,,,,,,,,,,,,,,,,,j,1,0.25531845772638917,,,,,,,,,,,,,,,,,,,,,,,,,,,,,,,104,001,2021_Sep_27_1455,joplin1,2021.2.3,60.127229289998134,
_train_cond.csv,0 0 1 0 1 1 0 1 0 0,6,categoryA,f,,,0,0,0,0,1,1,15,2,,,,,,,,,,,,,,,,,,,f,1,0.2832585829310119,,,,,,,,,,,,,,,,,,,,,,,,,,,,,,,104,001,2021_Sep_27_1455,joplin1,2021.2.3,60.127229289998134,
_train_cond.csv,1 0 0 0 0 0 0 0 0 1,8,categoryA,f,,,0,0,0,0,1,2,16,0,,,,,,,,,,,,,,,,,,,j,0,0.03855537483468652,,,,,,,,,,,,,,,,,,,,,,,,,,,,,,,104,001,2021_Sep_27_1455,joplin1,2021.2.3,60.127229289998134,
_train_cond.csv,1 0 1 1 1 1 1 1 0 1,2,categoryB,j,,,0,0,0,0,1,3,17,8,,,,,,,,,,,,,,,,,,,j,1,1.8750180839560926,,,,,,,,,,,,,,,,,,,,,,,,,,,,,,,104,001,2021_Sep_27_1455,joplin1,2021.2.3,60.127229289998134,
_train_cond.csv,0 1 1 1 1 1 1 1 1 0,2,categoryB,j,,,0,0,0,0,1,4,18,7,,,,,,,,,,,,,,,,,,,f,0,0.2865199171938002,,,,,,,,,,,,,,,,,,,,,,,,,,,,,,,104,001,2021_Sep_27_1455,joplin1,2021.2.3,60.127229289998134,
_train_cond.csv,0 1 0 0 0 0 0 0 1 0,8,categoryA,f,,,0,0,0,0,1,5,19,1,,,,,,,,,,,,,,,,,,,j,0,0.769314625300467,,,,,,,,,,,,,,,,,,,,,,,,,,,,,,,104,001,2021_Sep_27_1455,joplin1,2021.2.3,60.127229289998134,
_train_cond.csv,0 0 0 1 1 1 1 0 0 0,6,categoryA,f,,,0,0,0,0,1,6,20,3,,,,,,,,,,,,,,,,,,,f,1,0.31263899989426136,,,,,,,,,,,,,,,,,,,,,,,,,,,,,,,104,001,2021_Sep_27_1455,joplin1,2021.2.3,60.127229289998134,
_train_cond.csv,1 1 1 0 0 0 0 1 1 1,4,categoryB,j,,,0,0,0,0,1,7,21,10,,,,,,,,,,,,,,,,,,,j,1,0.6203387910500169,,,,,,,,,,,,,,,,,,,,,,,,,,,,,,,104,001,2021_Sep_27_1455,joplin1,2021.2.3,60.127229289998134,
_train_cond.csv,1 1 0 1 1 1 1 0 1 1,2,categoryB,j,,,0,0,0,0,1,8,22,12,,,,,,,,,,,,,,,,,,,j,1,0.2486461247317493,,,,,,,,,,,,,,,,,,,,,,,,,,,,,,,104,001,2021_Sep_27_1455,joplin1,2021.2.3,60.127229289998134,
_train_cond.csv,1 1 0 0 0 0 0 0 1 1,6,categoryA,f,,,0,0,0,0,1,9,23,6,,,,,,,,,,,,,,,,,,,j,0,0.26192291639745235,,,,,,,,,,,,,,,,,,,,,,,,,,,,,,,104,001,2021_Sep_27_1455,joplin1,2021.2.3,60.127229289998134,
_train_cond.csv,1 1 1 0 1 1 0 1 1 1,2,categoryB,j,,,0,0,0,0,1,10,24,11,,,,,,,,,,,,,,,,,,,j,1,0.3866884591989219,,,,,,,,,,,,,,,,,,,,,,,,,,,,,,,104,001,2021_Sep_27_1455,joplin1,2021.2.3,60.127229289998134,
_train_cond.csv,0 0 1 0 0 0 0 1 0 0,8,categoryA,f,,,0,0,0,0,1,11,25,5,,,,,,,,,,,,,,,,,,,f,1,0.08881987491622567,,,,,,,,,,,,,,,,,,,,,,,,,,,,,,,104,001,2021_Sep_27_1455,joplin1,2021.2.3,60.127229289998134,
_train_cond.csv,0 0 1 1 1 1 1 1 0 0,4,categoryB,j,,,0,0,0,0,1,12,26,13,,,,,,,,,,,,,,,,,,,f,0,0.9796953331679106,,,,,,,,,,,,,,,,,,,,,,,,,,,,,,,104,001,2021_Sep_27_1455,joplin1,2021.2.3,60.127229289998134,
_train_cond.csv,0 0 0 1 0 0 1 0 0 0,8,categoryA,f,,,0,0,0,0,1,13,27,4,,,,,,,,,,,,,,,,,,,f,1,0.04286262486129999,,,,,,,,,,,,,,,,,,,,,,,,,,,,,,,104,001,2021_Sep_27_1455,joplin1,2021.2.3,60.127229289998134,
_train_cond.csv,1 1 1 0 0 0 0 1 1 1,4,categoryB,j,,,0,0,0,0,2,0,28,10,,,,,,,,,,,,,,,,,,,j,1,0.3598435828462243,,,,,,,,,,,,,,,,,,,,,,,,,,,,,,,104,001,2021_Sep_27_1455,joplin1,2021.2.3,60.127229289998134,
_train_cond.csv,0 0 0 1 1 1 1 0 0 0,6,categoryA,f,,,0,0,0,0,2,1,29,3,,,,,,,,,,,,,,,,,,,f,1,0.12015933310613036,,,,,,,,,,,,,,,,,,,,,,,,,,,,,,,104,001,2021_Sep_27_1455,joplin1,2021.2.3,60.127229289998134,
_train_cond.csv,0 1 0 0 0 0 0 0 1 0,8,categoryA,f,,,0,0,0,0,2,2,30,1,,,,,,,,,,,,,,,,,,,j,0,0.4973469995893538,,,,,,,,,,,,,,,,,,,,,,,,,,,,,,,104,001,2021_Sep_27_1455,joplin1,2021.2.3,60.127229289998134,
_train_cond.csv,1 1 0 1 0 0 1 0 1 1,4,categoryB,j,,,0,0,0,0,2,3,31,9,,,,,,,,,,,,,,,,,,,j,1,0.21987741719931364,,,,,,,,,,,,,,,,,,,,,,,,,,,,,,,104,001,2021_Sep_27_1455,joplin1,2021.2.3,60.127229289998134,
_train_cond.csv,1 1 0 1 1 1 1 0 1 1,2,categoryB,j,,,0,0,0,0,2,4,32,12,,,,,,,,,,,,,,,,,,,j,1,0.3613960421644151,,,,,,,,,,,,,,,,,,,,,,,,,,,,,,,104,001,2021_Sep_27_1455,joplin1,2021.2.3,60.127229289998134,
_train_cond.csv,1 0 1 1 1 1 1 1 0 1,2,categoryB,j,,,0,0,0,0,2,5,33,8,,,,,,,,,,,,,,,,,,,j,1,0.0891639580950141,,,,,,,,,,,,,,,,,,,,,,,,,,,,,,,104,001,2021_Sep_27_1455,joplin1,2021.2.3,60.127229289998134,
_train_cond.csv,0 0 1 0 1 1 0 1 0 0,6,categoryA,f,,,0,0,0,0,2,6,34,2,,,,,,,,,,,,,,,,,,,f,1,0.2772594578564167,,,,,,,,,,,,,,,,,,,,,,,,,,,,,,,104,001,2021_Sep_27_1455,joplin1,2021.2.3,60.127229289998134,
_train_cond.csv,1 0 0 0 0 0 0 0 0 1,8,categoryA,f,,,0,0,0,0,2,7,35,0,,,,,,,,,,,,,,,,,,,j,0,0.24033545888960361,,,,,,,,,,,,,,,,,,,,,,,,,,,,,,,104,001,2021_Sep_27_1455,joplin1,2021.2.3,60.127229289998134,
_train_cond.csv,0 0 1 1 1 1 1 1 0 0,4,categoryB,j,,,0,0,0,0,2,8,36,13,,,,,,,,,,,,,,,,,,,f,0,0.1816868749447167,,,,,,,,,,,,,,,,,,,,,,,,,,,,,,,104,001,2021_Sep_27_1455,joplin1,2021.2.3,60.127229289998134,
_train_cond.csv,1 1 1 0 1 1 0 1 1 1,2,categoryB,j,,,0,0,0,0,2,9,37,11,,,,,,,,,,,,,,,,,,,j,1,0.18816854106262326,,,,,,,,,,,,,,,,,,,,,,,,,,,,,,,104,001,2021_Sep_27_1455,joplin1,2021.2.3,60.127229289998134,
_train_cond.csv,0 1 1 1 1 1 1 1 1 0,2,categoryB,j,,,0,0,0,0,2,10,38,7,,,,,,,,,,,,,,,,,,,f,0,0.15397283295169473,,,,,,,,,,,,,,,,,,,,,,,,,,,,,,,104,001,2021_Sep_27_1455,joplin1,2021.2.3,60.127229289998134,
_train_cond.csv,1 1 0 0 0 0 0 0 1 1,6,categoryA,f,,,0,0,0,0,2,11,39,6,,,,,,,,,,,,,,,,,,,j,0,0.1705599590204656,,,,,,,,,,,,,,,,,,,,,,,,,,,,,,,104,001,2021_Sep_27_1455,joplin1,2021.2.3,60.127229289998134,
_train_cond.csv,0 0 1 0 0 0 0 1 0 0,8,categoryA,f,,,0,0,0,0,2,12,40,5,,,,,,,,,,,,,,,,,,,f,1,0.07473370898514986,,,,,,,,,,,,,,,,,,,,,,,,,,,,,,,104,001,2021_Sep_27_1455,joplin1,2021.2.3,60.127229289998134,
_train_cond.csv,0 0 0 1 0 0 1 0 0 0,8,categoryA,f,,,0,0,0,0,2,13,41,4,,,,,,,,,,,,,,,,,,,j,0,0.6861154171638191,,,,,,,,,,,,,,,,,,,,,,,,,,,,,,,104,001,2021_Sep_27_1455,joplin1,2021.2.3,60.127229289998134,
_train_cond.csv,,,,,,,0,0,0,0,,,,,,,,,,,,,,,,,,,,,,,,,,space,11.720089708920568,,,,,,,,,,,,,,,,,,,,,,,,,,,,,104,001,2021_Sep_27_1455,joplin1,2021.2.3,60.127229289998134,
_train_cond.csv,1 1 0 0 0 0 0 0 1 1,6,categoryA,f,,,0,1,1,3,0,0,0,6,,,,,,,,,,,,,,,,,,,j,0,1.2341301669366658,,,,,,,,,,,,,,,,,,,,,,,,,,,,,,,104,001,2021_Sep_27_1455,joplin1,2021.2.3,60.127229289998134,
_train_cond.csv,1 0 0 0 0 0 0 0 0 1,8,categoryA,f,,,0,1,1,3,0,1,1,0,,,,,,,,,,,,,,,,,,,j,0,0.21519374987110496,,,,,,,,,,,,,,,,,,,,,,,,,,,,,,,104,001,2021_Sep_27_1455,joplin1,2021.2.3,60.127229289998134,
_train_cond.csv,1 1 0 1 0 0 1 0 1 1,4,categoryB,j,,,0,1,1,3,0,2,2,9,,,,,,,,,,,,,,,,,,,j,1,0.10155037511140108,,,,,,,,,,,,,,,,,,,,,,,,,,,,,,,104,001,2021_Sep_27_1455,joplin1,2021.2.3,60.127229289998134,
_train_cond.csv,1 1 1 0 1 1 0 1 1 1,2,categoryB,j,,,0,1,1,3,0,3,3,11,,,,,,,,,,,,,,,,,,,None,0,,,,,,,,,,,,,,,,,,,,,,,,,,,,,,,,104,001,2021_Sep_27_1455,joplin1,2021.2.3,60.127229289998134,
_train_cond.csv,0 1 0 0 0 0 0 0 1 0,8,categoryA,f,,,0,1,1,3,0,4,4,1,,,,,,,,,,,,,,,,,,,f,1,0.8556747920811176,,,,,,,,,,,,,,,,,,,,,,,,,,,,,,,104,001,2021_Sep_27_1455,joplin1,2021.2.3,60.127229289998134,
_train_cond.csv,1 0 1 1 1 1 1 1 0 1,2,categoryB,j,,,0,1,1,3,0,5,5,8,,,,,,,,,,,,,,,,,,,j,1,0.316080582793802,,,,,,,,,,,,,,,,,,,,,,,,,,,,,,,104,001,2021_Sep_27_1455,joplin1,2021.2.3,60.127229289998134,
_train_cond.csv,0 0 1 0 1 1 0 1 0 0,6,categoryA,f,,,0,1,1,3,0,6,6,2,,,,,,,,,,,,,,,,,,,f,1,0.14198812516406178,,,,,,,,,,,,,,,,,,,,,,,,,,,,,,,104,001,2021_Sep_27_1455,joplin1,2021.2.3,60.127229289998134,
_train_cond.csv,1 1 1 0 0 0 0 1 1 1,4,categoryB,j,,,0,1,1,3,0,7,7,10,,,,,,,,,,,,,,,,,,,f,0,0.6546060829423368,,,,,,,,,,,,,,,,,,,,,,,,,,,,,,,104,001,2021_Sep_27_1455,joplin1,2021.2.3,60.127229289998134,
_train_cond.csv,0 0 1 0 0 0 0 1 0 0,8,categoryA,f,,,0,1,1,3,0,8,8,5,,,,,,,,,,,,,,,,,,,f,1,0.1311545423232019,,,,,,,,,,,,,,,,,,,,,,,,,,,,,,,104,001,2021_Sep_27_1455,joplin1,2021.2.3,60.127229289998134,
_train_cond.csv,1 1 0 1 1 1 1 0 1 1,2,categoryB,j,,,0,1,1,3,0,9,9,12,,,,,,,,,,,,,,,,,,,j,1,0.6515587079338729,,,,,,,,,,,,,,,,,,,,,,,,,,,,,,,104,001,2021_Sep_27_1455,joplin1,2021.2.3,60.127229289998134,
_train_cond.csv,0 0 0 1 1 1 1 0 0 0,6,categoryA,f,,,0,1,1,3,0,10,10,3,,,,,,,,,,,,,,,,,,,f,1,0.12089062482118607,,,,,,,,,,,,,,,,,,,,,,,,,,,,,,,104,001,2021_Sep_27_1455,joplin1,2021.2.3,60.127229289998134,
_train_cond.csv,0 0 0 1 0 0 1 0 0 0,8,categoryA,f,,,0,1,1,3,0,11,11,4,,,,,,,,,,,,,,,,,,,j,0,0.026004415936768055,,,,,,,,,,,,,,,,,,,,,,,,,,,,,,,104,001,2021_Sep_27_1455,joplin1,2021.2.3,60.127229289998134,
_train_cond.csv,0 1 1 1 1 1 1 1 1 0,2,categoryB,j,,,0,1,1,3,0,12,12,7,,,,,,,,,,,,,,,,,,,f,0,0.4310613330453634,,,,,,,,,,,,,,,,,,,,,,,,,,,,,,,104,001,2021_Sep_27_1455,joplin1,2021.2.3,60.127229289998134,
_train_cond.csv,0 0 1 1 1 1 1 1 0 0,4,categoryB,j,,,0,1,1,3,0,13,13,13,,,,,,,,,,,,,,,,,,,f,0,0.5566896661184728,,,,,,,,,,,,,,,,,,,,,,,,,,,,,,,104,001,2021_Sep_27_1455,joplin1,2021.2.3,60.127229289998134,
_train_cond.csv,0 0 1 0 0 0 0 1 0 0,8,categoryA,f,,,0,1,1,3,1,0,14,5,,,,,,,,,,,,,,,,,,,j,0,0.30164966732263565,,,,,,,,,,,,,,,,,,,,,,,,,,,,,,,104,001,2021_Sep_27_1455,joplin1,2021.2.3,60.127229289998134,
_train_cond.csv,1 0 0 0 0 0 0 0 0 1,8,categoryA,f,,,0,1,1,3,1,1,15,0,,,,,,,,,,,,,,,,,,,j,0,0.05602974956855178,,,,,,,,,,,,,,,,,,,,,,,,,,,,,,,104,001,2021_Sep_27_1455,joplin1,2021.2.3,60.127229289998134,
_train_cond.csv,0 0 0 1 1 1 1 0 0 0,6,categoryA,f,,,0,1,1,3,1,2,16,3,,,,,,,,,,,,,,,,,,,j,0,0.4763069162145257,,,,,,,,,,,,,,,,,,,,,,,,,,,,,,,104,001,2021_Sep_27_1455,joplin1,2021.2.3,60.127229289998134,
_train_cond.csv,0 0 1 1 1 1 1 1 0 0,4,categoryB,j,,,0,1,1,3,1,3,17,13,,,,,,,,,,,,,,,,,,,f,0,0.07129837526008487,,,,,,,,,,,,,,,,,,,,,,,,,,,,,,,104,001,2021_Sep_27_1455,joplin1,2021.2.3,60.127229289998134,
_train_cond.csv,0 1 0 0 0 0 0 0 1 0,8,categoryA,f,,,0,1,1,3,1,4,18,1,,,,,,,,,,,,,,,,,,,f,1,0.052170208655297756,,,,,,,,,,,,,,,,,,,,,,,,,,,,,,,104,001,2021_Sep_27_1455,joplin1,2021.2.3,60.127229289998134,
_train_cond.csv,0 0 1 0 1 1 0 1 0 0,6,categoryA,f,,,0,1,1,3,1,5,19,2,,,,,,,,,,,,,,,,,,,f,1,0.42419387493282557,,,,,,,,,,,,,,,,,,,,,,,,,,,,,,,104,001,2021_Sep_27_1455,joplin1,2021.2.3,60.127229289998134,
_train_cond.csv,1 1 1 0 0 0 0 1 1 1,4,categoryB,j,,,0,1,1,3,1,6,20,10,,,,,,,,,,,,,,,,,,,j,1,0.3265957082621753,,,,,,,,,,,,,,,,,,,,,,,,,,,,,,,104,001,2021_Sep_27_1455,joplin1,2021.2.3,60.127229289998134,
_train_cond.csv,0 1 1 1 1 1 1 1 1 0,2,categoryB,j,,,0,1,1,3,1,7,21,7,,,,,,,,,,,,,,,,,,,f,0,0.11201199982315302,,,,,,,,,,,,,,,,,,,,,,,,,,,,,,,104,001,2021_Sep_27_1455,joplin1,2021.2.3,60.127229289998134,
_train_cond.csv,1 0 1 1 1 1 1 1 0 1,2,categoryB,j,,,0,1,1,3,1,8,22,8,,,,,,,,,,,,,,,,,,,j,1,0.402060582768172,,,,,,,,,,,,,,,,,,,,,,,,,,,,,,,104,001,2021_Sep_27_1455,joplin1,2021.2.3,60.127229289998134,
_train_cond.csv,1 1 0 1 0 0 1 0 1 1,4,categoryB,j,,,0,1,1,3,1,9,23,9,,,,,,,,,,,,,,,,,,,j,1,0.5127751249819994,,,,,,,,,,,,,,,,,,,,,,,,,,,,,,,104,001,2021_Sep_27_1455,joplin1,2021.2.3,60.127229289998134,
_train_cond.csv,1 1 0 0 0 0 0 0 1 1,6,categoryA,f,,,0,1,1,3,1,10,24,6,,,,,,,,,,,,,,,,,,,j,0,0.29040829185396433,,,,,,,,,,,,,,,,,,,,,,,,,,,,,,,104,001,2021_Sep_27_1455,joplin1,2021.2.3,60.127229289998134,
_train_cond.csv,0 0 0 1 0 0 1 0 0 0,8,categoryA,f,,,0,1,1,3,1,11,25,4,,,,,,,,,,,,,,,,,,,f,1,2.3180952076800168,,,,,,,,,,,,,,,,,,,,,,,,,,,,,,,104,001,2021_Sep_27_1455,joplin1,2021.2.3,60.127229289998134,
_train_cond.csv,1 1 1 0 1 1 0 1 1 1,2,categoryB,j,,,0,1,1,3,1,12,26,11,,,,,,,,,,,,,,,,,,,j,1,0.1833954998292029,,,,,,,,,,,,,,,,,,,,,,,,,,,,,,,104,001,2021_Sep_27_1455,joplin1,2021.2.3,60.127229289998134,
_train_cond.csv,1 1 0 1 1 1 1 0 1 1,2,categoryB,j,,,0,1,1,3,1,13,27,12,,,,,,,,,,,,,,,,,,,j,1,0.2946160421706736,,,,,,,,,,,,,,,,,,,,,,,,,,,,,,,104,001,2021_Sep_27_1455,joplin1,2021.2.3,60.127229289998134,
_train_cond.csv,0 1 0 0 0 0 0 0 1 0,8,categoryA,f,,,0,1,1,3,2,0,28,1,,,,,,,,,,,,,,,,,,,f,1,0.33772462513297796,,,,,,,,,,,,,,,,,,,,,,,,,,,,,,,104,001,2021_Sep_27_1455,joplin1,2021.2.3,60.127229289998134,
_train_cond.csv,0 0 0 1 0 0 1 0 0 0,8,categoryA,f,,,0,1,1,3,2,1,29,4,,,,,,,,,,,,,,,,,,,f,1,0.4264555419795215,,,,,,,,,,,,,,,,,,,,,,,,,,,,,,,104,001,2021_Sep_27_1455,joplin1,2021.2.3,60.127229289998134,
_train_cond.csv,0 0 1 1 1 1 1 1 0 0,4,categoryB,j,,,0,1,1,3,2,2,30,13,,,,,,,,,,,,,,,,,,,f,0,0.2647679168730974,,,,,,,,,,,,,,,,,,,,,,,,,,,,,,,104,001,2021_Sep_27_1455,joplin1,2021.2.3,60.127229289998134,
_train_cond.csv,0 0 1 0 1 1 0 1 0 0,6,categoryA,f,,,0,1,1,3,2,3,31,2,,,,,,,,,,,,,,,,,,,f,1,0.34055537497624755,,,,,,,,,,,,,,,,,,,,,,,,,,,,,,,104,001,2021_Sep_27_1455,joplin1,2021.2.3,60.127229289998134,
_train_cond.csv,1 1 0 1 1 1 1 0 1 1,2,categoryB,j,,,0,1,1,3,2,4,32,12,,,,,,,,,,,,,,,,,,,j,1,0.38943966710940003,,,,,,,,,,,,,,,,,,,,,,,,,,,,,,,104,001,2021_Sep_27_1455,joplin1,2021.2.3,60.127229289998134,
_train_cond.csv,1 1 1 0 0 0 0 1 1 1,4,categoryB,j,,,0,1,1,3,2,5,33,10,,,,,,,,,,,,,,,,,,,j,1,0.30788741586729884,,,,,,,,,,,,,,,,,,,,,,,,,,,,,,,104,001,2021_Sep_27_1455,joplin1,2021.2.3,60.127229289998134,
_train_cond.csv,1 1 0 0 0 0 0 0 1 1,6,categoryA,f,,,0,1,1,3,2,6,34,6,,,,,,,,,,,,,,,,,,,j,0,0.31085308361798525,,,,,,,,,,,,,,,,,,,,,,,,,,,,,,,104,001,2021_Sep_27_1455,joplin1,2021.2.3,60.127229289998134,
_train_cond.csv,0 0 0 1 1 1 1 0 0 0,6,categoryA,f,,,0,1,1,3,2,7,35,3,,,,,,,,,,,,,,,,,,,f,1,0.3203082079999149,,,,,,,,,,,,,,,,,,,,,,,,,,,,,,,104,001,2021_Sep_27_1455,joplin1,2021.2.3,60.127229289998134,
_train_cond.csv,0 0 1 0 0 0 0 1 0 0,8,categoryA,f,,,0,1,1,3,2,8,36,5,,,,,,,,,,,,,,,,,,,f,1,0.11396325007081032,,,,,,,,,,,,,,,,,,,,,,,,,,,,,,,104,001,2021_Sep_27_1455,joplin1,2021.2.3,60.127229289998134,
_train_cond.csv,1 0 1 1 1 1 1 1 0 1,2,categoryB,j,,,0,1,1,3,2,9,37,8,,,,,,,,,,,,,,,,,,,j,1,0.04471241729333997,,,,,,,,,,,,,,,,,,,,,,,,,,,,,,,104,001,2021_Sep_27_1455,joplin1,2021.2.3,60.127229289998134,
_train_cond.csv,1 0 0 0 0 0 0 0 0 1,8,categoryA,f,,,0,1,1,3,2,10,38,0,,,,,,,,,,,,,,,,,,,j,0,0.0730127920396626,,,,,,,,,,,,,,,,,,,,,,,,,,,,,,,104,001,2021_Sep_27_1455,joplin1,2021.2.3,60.127229289998134,
_train_cond.csv,1 1 0 1 0 0 1 0 1 1,4,categoryB,j,,,0,1,1,3,2,11,39,9,,,,,,,,,,,,,,,,,,,j,1,0.4606071659363806,,,,,,,,,,,,,,,,,,,,,,,,,,,,,,,104,001,2021_Sep_27_1455,joplin1,2021.2.3,60.127229289998134,
_train_cond.csv,0 1 1 1 1 1 1 1 1 0,2,categoryB,j,,,0,1,1,3,2,12,40,7,,,,,,,,,,,,,,,,,,,f,0,0.05657025007531047,,,,,,,,,,,,,,,,,,,,,,,,,,,,,,,104,001,2021_Sep_27_1455,joplin1,2021.2.3,60.127229289998134,
_train_cond.csv,1 1 1 0 1 1 0 1 1 1,2,categoryB,j,,,0,1,1,3,2,13,41,11,,,,,,,,,,,,,,,,,,,j,1,0.6602015001699328,,,,,,,,,,,,,,,,,,,,,,,,,,,,,,,104,001,2021_Sep_27_1455,joplin1,2021.2.3,60.127229289998134,
_train_cond.csv,,,,,,,0,1,1,3,,,,,,,,,,,,,,,,,,,,,,,,,,space,6.960248332936317,,,,,,,,,,,,,,,,,,,,,,,,,,,,,104,001,2021_Sep_27_1455,joplin1,2021.2.3,60.127229289998134,
_train_cond.csv,1 1 0 1 1 1 1 0 1 1,2,categoryB,j,,,0,2,2,7,0,0,0,12,,,,,,,,,,,,,,,,,,,j,1,0.10469716601073742,,,,,,,,,,,,,,,,,,,,,,,,,,,,,,,104,001,2021_Sep_27_1455,joplin1,2021.2.3,60.127229289998134,
_train_cond.csv,1 1 0 0 0 0 0 0 1 1,6,categoryA,f,,,0,2,2,7,0,1,1,6,,,,,,,,,,,,,,,,,,,f,1,0.8029765840619802,,,,,,,,,,,,,,,,,,,,,,,,,,,,,,,104,001,2021_Sep_27_1455,joplin1,2021.2.3,60.127229289998134,
_train_cond.csv,1 0 0 0 0 0 0 0 0 1,8,categoryA,f,,,0,2,2,7,0,2,2,0,,,,,,,,,,,,,,,,,,,j,0,0.3525950419716537,,,,,,,,,,,,,,,,,,,,,,,,,,,,,,,104,001,2021_Sep_27_1455,joplin1,2021.2.3,60.127229289998134,
_train_cond.csv,1 0 1 1 1 1 1 1 0 1,2,categoryB,j,,,0,2,2,7,0,3,3,8,,,,,,,,,,,,,,,,,,,j,1,0.6892402498051524,,,,,,,,,,,,,,,,,,,,,,,,,,,,,,,104,001,2021_Sep_27_1455,joplin1,2021.2.3,60.127229289998134,
_train_cond.csv,1 1 1 0 0 0 0 1 1 1,4,categoryB,j,,,0,2,2,7,0,4,4,10,,,,,,,,,,,,,,,,,,,j,1,0.41991224978119135,,,,,,,,,,,,,,,,,,,,,,,,,,,,,,,104,001,2021_Sep_27_1455,joplin1,2021.2.3,60.127229289998134,
_train_cond.csv,0 0 1 1 1 1 1 1 0 0,4,categoryB,j,,,0,2,2,7,0,5,5,13,,,,,,,,,,,,,,,,,,,f,0,0.1620541252195835,,,,,,,,,,,,,,,,,,,,,,,,,,,,,,,104,001,2021_Sep_27_1455,joplin1,2021.2.3,60.127229289998134,
_train_cond.csv,0 1 0 0 0 0 0 0 1 0,8,categoryA,f,,,0,2,2,7,0,6,6,1,,,,,,,,,,,,,,,,,,,j,0,0.5380407921038568,,,,,,,,,,,,,,,,,,,,,,,,,,,,,,,104,001,2021_Sep_27_1455,joplin1,2021.2.3,60.127229289998134,
_train_cond.csv,0 0 0 1 1 1 1 0 0 0,6,categoryA,f,,,0,2,2,7,0,7,7,3,,,,,,,,,,,,,,,,,,,f,1,0.3387063746340573,,,,,,,,,,,,,,,,,,,,,,,,,,,,,,,104,001,2021_Sep_27_1455,joplin1,2021.2.3,60.127229289998134,
_train_cond.csv,0 0 1 0 1 1 0 1 0 0,6,categoryA,f,,,0,2,2,7,0,8,8,2,,,,,,,,,,,,,,,,,,,f,1,0.18720254208892584,,,,,,,,,,,,,,,,,,,,,,,,,,,,,,,104,001,2021_Sep_27_1455,joplin1,2021.2.3,60.127229289998134,
_train_cond.csv,1 1 1 0 1 1 0 1 1 1,2,categoryB,j,,,0,2,2,7,0,9,9,11,,,,,,,,,,,,,,,,,,,j,1,0.2904815408401191,,,,,,,,,,,,,,,,,,,,,,,,,,,,,,,104,001,2021_Sep_27_1455,joplin1,2021.2.3,60.127229289998134,
_train_cond.csv,0 0 1 0 0 0 0 1 0 0,8,categoryA,f,,,0,2,2,7,0,10,10,5,,,,,,,,,,,,,,,,,,,f,1,0.38205462507903576,,,,,,,,,,,,,,,,,,,,,,,,,,,,,,,104,001,2021_Sep_27_1455,joplin1,2021.2.3,60.127229289998134,
_train_cond.csv,1 1 0 1 0 0 1 0 1 1,4,categoryB,j,,,0,2,2,7,0,11,11,9,,,,,,,,,,,,,,,,,,,j,1,0.19712150003761053,,,,,,,,,,,,,,,,,,,,,,,,,,,,,,,104,001,2021_Sep_27_1455,joplin1,2021.2.3,60.127229289998134,
_train_cond.csv,0 0 0 1 0 0 1 0 0 0,8,categoryA,f,,,0,2,2,7,0,12,12,4,,,,,,,,,,,,,,,,,,,f,1,0.16359329083934426,,,,,,,,,,,,,,,,,,,,,,,,,,,,,,,104,001,2021_Sep_27_1455,joplin1,2021.2.3,60.127229289998134,
_train_cond.csv,0 1 1 1 1 1 1 1 1 0,2,categoryB,j,,,0,2,2,7,0,13,13,7,,,,,,,,,,,,,,,,,,,f,0,0.21187541587278247,,,,,,,,,,,,,,,,,,,,,,,,,,,,,,,104,001,2021_Sep_27_1455,joplin1,2021.2.3,60.127229289998134,
_train_cond.csv,1 1 0 1 0 0 1 0 1 1,4,categoryB,j,,,0,2,2,7,1,0,14,9,,,,,,,,,,,,,,,,,,,j,1,0.2975581670179963,,,,,,,,,,,,,,,,,,,,,,,,,,,,,,,104,001,2021_Sep_27_1455,joplin1,2021.2.3,60.127229289998134,
_train_cond.csv,0 0 1 1 1 1 1 1 0 0,4,categoryB,j,,,0,2,2,7,1,1,15,13,,,,,,,,,,,,,,,,,,,f,0,0.28568924963474274,,,,,,,,,,,,,,,,,,,,,,,,,,,,,,,104,001,2021_Sep_27_1455,joplin1,2021.2.3,60.127229289998134,
_train_cond.csv,1 1 1 0 1 1 0 1 1 1,2,categoryB,j,,,0,2,2,7,1,2,16,11,,,,,,,,,,,,,,,,,,,j,1,0.344862625002861,,,,,,,,,,,,,,,,,,,,,,,,,,,,,,,104,001,2021_Sep_27_1455,joplin1,2021.2.3,60.127229289998134,
_train_cond.csv,0 0 1 0 0 0 0 1 0 0,8,categoryA,f,,,0,2,2,7,1,3,17,5,,,,,,,,,,,,,,,,,,,f,1,0.14527862472459674,,,,,,,,,,,,,,,,,,,,,,,,,,,,,,,104,001,2021_Sep_27_1455,joplin1,2021.2.3,60.127229289998134,
_train_cond.csv,1 1 0 1 1 1 1 0 1 1,2,categoryB,j,,,0,2,2,7,1,4,18,12,,,,,,,,,,,,,,,,,,,j,1,0.24989812495186925,,,,,,,,,,,,,,,,,,,,,,,,,,,,,,,104,001,2021_Sep_27_1455,joplin1,2021.2.3,60.127229289998134,
_train_cond.csv,0 0 1 0 1 1 0 1 0 0,6,categoryA,f,,,0,2,2,7,1,5,19,2,,,,,,,,,,,,,,,,,,,f,1,0.35054308315739036,,,,,,,,,,,,,,,,,,,,,,,,,,,,,,,104,001,2021_Sep_27_1455,joplin1,2021.2.3,60.127229289998134,
_train_cond.csv,1 0 1 1 1 1 1 1 0 1,2,categoryB,j,,,0,2,2,7,1,6,20,8,,,,,,,,,,,,,,,,,,,j,1,0.4076334168203175,,,,,,,,,,,,,,,,,,,,,,,,,,,,,,,104,001,2021_Sep_27_1455,joplin1,2021.2.3,60.127229289998134,
_train_cond.csv,0 0 0 1 1 1 1 0 0 0,6,categoryA,f,,,0,2,2,7,1,7,21,3,,,,,,,,,,,,,,,,,,,f,1,0.2528435420244932,,,,,,,,,,,,,,,,,,,,,,,,,,,,,,,104,001,2021_Sep_27_1455,joplin1,2021.2.3,60.127229289998134,
_train_cond.csv,1 0 0 0 0 0 0 0 0 1,8,categoryA,f,,,0,2,2,7,1,8,22,0,,,,,,,,,,,,,,,,,,,j,0,0.408522707875818,,,,,,,,,,,,,,,,,,,,,,,,,,,,,,,104,001,2021_Sep_27_1455,joplin1,2021.2.3,60.127229289998134,
_train_cond.csv,0 1 0 0 0 0 0 0 1 0,8,categoryA,f,,,0,2,2,7,1,9,23,1,,,,,,,,,,,,,,,,,,,f,1,0.2547789579257369,,,,,,,,,,,,,,,,,,,,,,,,,,,,,,,104,001,2021_Sep_27_1455,joplin1,2021.2.3,60.127229289998134,
_train_cond.csv,0 1 1 1 1 1 1 1 1 0,2,categoryB,j,,,0,2,2,7,1,10,24,7,,,,,,,,,,,,,,,,,,,f,0,0.3069411660544574,,,,,,,,,,,,,,,,,,,,,,,,,,,,,,,104,001,2021_Sep_27_1455,joplin1,2021.2.3,60.127229289998134,
_train_cond.csv,1 1 0 0 0 0 0 0 1 1,6,categoryA,f,,,0,2,2,7,1,11,25,6,,,,,,,,,,,,,,,,,,,j,0,0.22940204199403524,,,,,,,,,,,,,,,,,,,,,,,,,,,,,,,104,001,2021_Sep_27_1455,joplin1,2021.2.3,60.127229289998134,
_train_cond.csv,0 0 0 1 0 0 1 0 0 0,8,categoryA,f,,,0,2,2,7,1,12,26,4,,,,,,,,,,,,,,,,,,,f,1,0.6027136668562889,,,,,,,,,,,,,,,,,,,,,,,,,,,,,,,104,001,2021_Sep_27_1455,joplin1,2021.2.3,60.127229289998134,
_train_cond.csv,1 1 1 0 0 0 0 1 1 1,4,categoryB,j,,,0,2,2,7,1,13,27,10,,,,,,,,,,,,,,,,,,,j,1,0.09664674988016486,,,,,,,,,,,,,,,,,,,,,,,,,,,,,,,104,001,2021_Sep_27_1455,joplin1,2021.2.3,60.127229289998134,
_train_cond.csv,0 0 1 0 0 0 0 1 0 0,8,categoryA,f,,,0,2,2,7,2,0,28,5,,,,,,,,,,,,,,,,,,,j,0,0.1312812501564622,,,,,,,,,,,,,,,,,,,,,,,,,,,,,,,104,001,2021_Sep_27_1455,joplin1,2021.2.3,60.127229289998134,
_train_cond.csv,0 1 1 1 1 1 1 1 1 0,2,categoryB,j,,,0,2,2,7,2,1,29,7,,,,,,,,,,,,,,,,,,,f,0,0.12498220894485712,,,,,,,,,,,,,,,,,,,,,,,,,,,,,,,104,001,2021_Sep_27_1455,joplin1,2021.2.3,60.127229289998134,
_train_cond.csv,0 0 0 1 1 1 1 0 0 0,6,categoryA,f,,,0,2,2,7,2,2,30,3,,,,,,,,,,,,,,,,,,,j,0,0.8946097497828305,,,,,,,,,,,,,,,,,,,,,,,,,,,,,,,104,001,2021_Sep_27_1455,joplin1,2021.2.3,60.127229289998134,
_train_cond.csv,0 0 1 0 1 1 0 1 0 0,6,categoryA,f,,,0,2,2,7,2,3,31,2,,,,,,,,,,,,,,,,,,,f,1,0.4967640829272568,,,,,,,,,,,,,,,,,,,,,,,,,,,,,,,104,001,2021_Sep_27_1455,joplin1,2021.2.3,60.127229289998134,
_train_cond.csv,1 1 1 0 0 0 0 1 1 1,4,categoryB,j,,,0,2,2,7,2,4,32,10,,,,,,,,,,,,,,,,,,,j,1,0.1553161251358688,,,,,,,,,,,,,,,,,,,,,,,,,,,,,,,104,001,2021_Sep_27_1455,joplin1,2021.2.3,60.127229289998134,
_train_cond.csv,1 1 0 1 0 0 1 0 1 1,4,categoryB,j,,,0,2,2,7,2,5,33,9,,,,,,,,,,,,,,,,,,,j,1,0.10778424981981516,,,,,,,,,,,,,,,,,,,,,,,,,,,,,,,104,001,2021_Sep_27_1455,joplin1,2021.2.3,60.127229289998134,
_train_cond.csv,1 1 0 0 0 0 0 0 1 1,6,categoryA,f,,,0,2,2,7,2,6,34,6,,,,,,,,,,,,,,,,,,,j,0,0.05355108343064785,,,,,,,,,,,,,,,,,,,,,,,,,,,,,,,104,001,2021_Sep_27_1455,joplin1,2021.2.3,60.127229289998134,
_train_cond.csv,0 1 0 0 0 0 0 0 1 0,8,categoryA,f,,,0,2,2,7,2,7,35,1,,,,,,,,,,,,,,,,,,,f,1,0.46538129076361656,,,,,,,,,,,,,,,,,,,,,,,,,,,,,,,104,001,2021_Sep_27_1455,joplin1,2021.2.3,60.127229289998134,
_train_cond.csv,0 0 0 1 0 0 1 0 0 0,8,categoryA,f,,,0,2,2,7,2,8,36,4,,,,,,,,,,,,,,,,,,,f,1,0.35705645801499486,,,,,,,,,,,,,,,,,,,,,,,,,,,,,,,104,001,2021_Sep_27_1455,joplin1,2021.2.3,60.127229289998134,
_train_cond.csv,1 1 0 1 1 1 1 0 1 1,2,categoryB,j,,,0,2,2,7,2,9,37,12,,,,,,,,,,,,,,,,,,,f,0,0.3258254579268396,,,,,,,,,,,,,,,,,,,,,,,,,,,,,,,104,001,2021_Sep_27_1455,joplin1,2021.2.3,60.127229289998134,
_train_cond.csv,1 1 1 0 1 1 0 1 1 1,2,categoryB,j,,,0,2,2,7,2,10,38,11,,,,,,,,,,,,,,,,,,,j,1,0.3514557918533683,,,,,,,,,,,,,,,,,,,,,,,,,,,,,,,104,001,2021_Sep_27_1455,joplin1,2021.2.3,60.127229289998134,
_train_cond.csv,0 0 1 1 1 1 1 1 0 0,4,categoryB,j,,,0,2,2,7,2,11,39,13,,,,,,,,,,,,,,,,,,,f,0,0.1361472080461681,,,,,,,,,,,,,,,,,,,,,,,,,,,,,,,104,001,2021_Sep_27_1455,joplin1,2021.2.3,60.127229289998134,
_train_cond.csv,1 0 1 1 1 1 1 1 0 1,2,categoryB,j,,,0,2,2,7,2,12,40,8,,,,,,,,,,,,,,,,,,,j,1,0.12069158302620053,,,,,,,,,,,,,,,,,,,,,,,,,,,,,,,104,001,2021_Sep_27_1455,joplin1,2021.2.3,60.127229289998134,
_train_cond.csv,1 0 0 0 0 0 0 0 0 1,8,categoryA,f,,,0,2,2,7,2,13,41,0,,,,,,,,,,,,,,,,,,,j,0,0.12198999989777803,,,,,,,,,,,,,,,,,,,,,,,,,,,,,,,104,001,2021_Sep_27_1455,joplin1,2021.2.3,60.127229289998134,
_train_cond.csv,,,,,,,0,2,2,7,,,,,,,,,,,,,,,,,,,,,,,,,,space,7.682496708352119,,,,,,,,,,,,,,,,,,,,,,,,,,,,,104,001,2021_Sep_27_1455,joplin1,2021.2.3,60.127229289998134,
_train_cond.csv,0 0 0 1 1 1 1 0 0 0,6,categoryA,f,,,0,3,3,2,0,0,0,3,,,,,,,,,,,,,,,,,,,f,1,0.5906760836951435,,,,,,,,,,,,,,,,,,,,,,,,,,,,,,,104,001,2021_Sep_27_1455,joplin1,2021.2.3,60.127229289998134,
_train_cond.csv,0 0 1 0 0 0 0 1 0 0,8,categoryA,f,,,0,3,3,2,0,1,1,5,,,,,,,,,,,,,,,,,,,j,0,0.389317125082016,,,,,,,,,,,,,,,,,,,,,,,,,,,,,,,104,001,2021_Sep_27_1455,joplin1,2021.2.3,60.127229289998134,
_train_cond.csv,1 1 1 0 0 0 0 1 1 1,4,categoryB,j,,,0,3,3,2,0,2,2,10,,,,,,,,,,,,,,,,,,,j,1,0.9315504156984389,,,,,,,,,,,,,,,,,,,,,,,,,,,,,,,104,001,2021_Sep_27_1455,joplin1,2021.2.3,60.127229289998134,
_train_cond.csv,1 1 0 0 0 0 0 0 1 1,6,categoryA,f,,,0,3,3,2,0,3,3,6,,,,,,,,,,,,,,,,,,,j,0,0.46067204186692834,,,,,,,,,,,,,,,,,,,,,,,,,,,,,,,104,001,2021_Sep_27_1455,joplin1,2021.2.3,60.127229289998134,
_train_cond.csv,0 0 1 0 1 1 0 1 0 0,6,categoryA,f,,,0,3,3,2,0,4,4,2,,,,,,,,,,,,,,,,,,,j,0,0.32858320884406567,,,,,,,,,,,,,,,,,,,,,,,,,,,,,,,104,001,2021_Sep_27_1455,joplin1,2021.2.3,60.127229289998134,
_train_cond.csv,0 0 1 1 1 1 1 1 0 0,4,categoryB,j,,,0,3,3,2,0,5,5,13,,,,,,,,,,,,,,,,,,,f,0,0.1631152918562293,,,,,,,,,,,,,,,,,,,,,,,,,,,,,,,104,001,2021_Sep_27_1455,joplin1,2021.2.3,60.127229289998134,
_train_cond.csv,0 1 0 0 0 0 0 0 1 0,8,categoryA,f,,,0,3,3,2,0,6,6,1,,,,,,,,,,,,,,,,,,,f,1,0.9230157500132918,,,,,,,,,,,,,,,,,,,,,,,,,,,,,,,104,001,2021_Sep_27_1455,joplin1,2021.2.3,60.127229289998134,
_train_cond.csv,1 1 0 1 0 0 1 0 1 1,4,categoryB,j,,,0,3,3,2,0,7,7,9,,,,,,,,,,,,,,,,,,,f,0,0.22898166719824076,,,,,,,,,,,,,,,,,,,,,,,,,,,,,,,104,001,2021_Sep_27_1455,joplin1,2021.2.3,60.127229289998134,
_train_cond.csv,1 0 0 0 0 0 0 0 0 1,8,categoryA,f,,,0,3,3,2,0,8,8,0,,,,,,,,,,,,,,,,,,,j,0,0.05049508297815919,,,,,,,,,,,,,,,,,,,,,,,,,,,,,,,104,001,2021_Sep_27_1455,joplin1,2021.2.3,60.127229289998134,
_train_cond.csv,0 1 1 1 1 1 1 1 1 0,2,categoryB,j,,,0,3,3,2,0,9,9,7,,,,,,,,,,,,,,,,,,,f,0,0.022312750108540058,,,,,,,,,,,,,,,,,,,,,,,,,,,,,,,104,001,2021_Sep_27_1455,joplin1,2021.2.3,60.127229289998134,
_train_cond.csv,1 1 0 1 1 1 1 0 1 1,2,categoryB,j,,,0,3,3,2,0,10,10,12,,,,,,,,,,,,,,,,,,,j,1,0.012229249812662601,,,,,,,,,,,,,,,,,,,,,,,,,,,,,,,104,001,2021_Sep_27_1455,joplin1,2021.2.3,60.127229289998134,
_train_cond.csv,0 0 0 1 0 0 1 0 0 0,8,categoryA,f,,,0,3,3,2,0,11,11,4,,,,,,,,,,,,,,,,,,,f,1,0.13799541676416993,,,,,,,,,,,,,,,,,,,,,,,,,,,,,,,104,001,2021_Sep_27_1455,joplin1,2021.2.3,60.127229289998134,
_train_cond.csv,1 1 1 0 1 1 0 1 1 1,2,categoryB,j,,,0,3,3,2,0,12,12,11,,,,,,,,,,,,,,,,,,,f,0,0.03469712473452091,,,,,,,,,,,,,,,,,,,,,,,,,,,,,,,104,001,2021_Sep_27_1455,joplin1,2021.2.3,60.127229289998134,
_train_cond.csv,1 0 1 1 1 1 1 1 0 1,2,categoryB,j,,,0,3,3,2,0,13,13,8,,,,,,,,,,,,,,,,,,,f,0,0.18394166603684425,,,,,,,,,,,,,,,,,,,,,,,,,,,,,,,104,001,2021_Sep_27_1455,joplin1,2021.2.3,60.127229289998134,
_train_cond.csv,0 0 1 0 0 0 0 1 0 0,8,categoryA,f,,,0,3,3,2,1,0,14,5,,,,,,,,,,,,,,,,,,,j,0,0.36723591620102525,,,,,,,,,,,,,,,,,,,,,,,,,,,,,,,104,001,2021_Sep_27_1455,joplin1,2021.2.3,60.127229289998134,
_train_cond.csv,0 0 0 1 1 1 1 0 0 0,6,categoryA,f,,,0,3,3,2,1,1,15,3,,,,,,,,,,,,,,,,,,,f,1,0.151142000220716,,,,,,,,,,,,,,,,,,,,,,,,,,,,,,,104,001,2021_Sep_27_1455,joplin1,2021.2.3,60.127229289998134,
_train_cond.csv,1 1 0 0 0 0 0 0 1 1,6,categoryA,f,,,0,3,3,2,1,2,16,6,,,,,,,,,,,,,,,,,,,j,0,0.6152585418894887,,,,,,,,,,,,,,,,,,,,,,,,,,,,,,,104,001,2021_Sep_27_1455,joplin1,2021.2.3,60.127229289998134,
_train_cond.csv,0 0 1 1 1 1 1 1 0 0,4,categoryB,j,,,0,3,3,2,1,3,17,13,,,,,,,,,,,,,,,,,,,f,0,0.0540847503580153,,,,,,,,,,,,,,,,,,,,,,,,,,,,,,,104,001,2021_Sep_27_1455,joplin1,2021.2.3,60.127229289998134,
_train_cond.csv,1 1 0 1 1 1 1 0 1 1,2,categoryB,j,,,0,3,3,2,1,4,18,12,,,,,,,,,,,,,,,,,,,j,1,0.025630916003137827,,,,,,,,,,,,,,,,,,,,,,,,,,,,,,,104,001,2021_Sep_27_1455,joplin1,2021.2.3,60.127229289998134,
_train_cond.csv,1 0 1 1 1 1 1 1 0 1,2,categoryB,j,,,0,3,3,2,1,5,19,8,,,,,,,,,,,,,,,,,,,j,1,0.6876535001210868,,,,,,,,,,,,,,,,,,,,,,,,,,,,,,,104,001,2021_Sep_27_1455,joplin1,2021.2.3,60.127229289998134,
_train_cond.csv,1 1 0 1 0 0 1 0 1 1,4,categoryB,j,,,0,3,3,2,1,6,20,9,,,,,,,,,,,,,,,,,,,f,0,0.31539150001481175,,,,,,,,,,,,,,,,,,,,,,,,,,,,,,,104,001,2021_Sep_27_1455,joplin1,2021.2.3,60.127229289998134,
_train_cond.csv,1 0 0 0 0 0 0 0 0 1,8,categoryA,f,,,0,3,3,2,1,7,21,0,,,,,,,,,,,,,,,,,,,f,1,0.4204850420355797,,,,,,,,,,,,,,,,,,,,,,,,,,,,,,,104,001,2021_Sep_27_1455,joplin1,2021.2.3,60.127229289998134,
_train_cond.csv,0 0 0 1 0 0 1 0 0 0,8,categoryA,f,,,0,3,3,2,1,8,22,4,,,,,,,,,,,,,,,,,,,j,0,0.3460386670194566,,,,,,,,,,,,,,,,,,,,,,,,,,,,,,,104,001,2021_Sep_27_1455,joplin1,2021.2.3,60.127229289998134,
_train_cond.csv,0 0 1 0 1 1 0 1 0 0,6,categoryA,f,,,0,3,3,2,1,9,23,2,,,,,,,,,,,,,,,,,,,f,1,0.06670541735365987,,,,,,,,,,,,,,,,,,,,,,,,,,,,,,,104,001,2021_Sep_27_1455,joplin1,2021.2.3,60.127229289998134,
_train_cond.csv,0 1 0 0 0 0 0 0 1 0,8,categoryA,f,,,0,3,3,2,1,10,24,1,,,,,,,,,,,,,,,,,,,j,0,0.15868950029835105,,,,,,,,,,,,,,,,,,,,,,,,,,,,,,,104,001,2021_Sep_27_1455,joplin1,2021.2.3,60.127229289998134,
_train_cond.csv,1 1 1 0 1 1 0 1 1 1,2,categoryB,j,,,0,3,3,2,1,11,25,11,,,,,,,,,,,,,,,,,,,f,0,2.1428140411153436,,,,,,,,,,,,,,,,,,,,,,,,,,,,,,,104,001,2021_Sep_27_1455,joplin1,2021.2.3,60.127229289998134,
_train_cond.csv,1 1 1 0 0 0 0 1 1 1,4,categoryB,j,,,0,3,3,2,1,12,26,10,,,,,,,,,,,,,,,,,,,j,1,0.5114167500287294,,,,,,,,,,,,,,,,,,,,,,,,,,,,,,,104,001,2021_Sep_27_1455,joplin1,2021.2.3,60.127229289998134,
_train_cond.csv,0 1 1 1 1 1 1 1 1 0,2,categoryB,j,,,0,3,3,2,1,13,27,7,,,,,,,,,,,,,,,,,,,f,0,0.07298249984160066,,,,,,,,,,,,,,,,,,,,,,,,,,,,,,,104,001,2021_Sep_27_1455,joplin1,2021.2.3,60.127229289998134,
_train_cond.csv,0 1 1 1 1 1 1 1 1 0,2,categoryB,j,,,0,3,3,2,2,0,28,7,,,,,,,,,,,,,,,,,,,j,1,0.14815954165533185,,,,,,,,,,,,,,,,,,,,,,,,,,,,,,,104,001,2021_Sep_27_1455,joplin1,2021.2.3,60.127229289998134,
_train_cond.csv,1 1 1 0 1 1 0 1 1 1,2,categoryB,j,,,0,3,3,2,2,1,29,11,,,,,,,,,,,,,,,,,,,j,1,0.2613709159195423,,,,,,,,,,,,,,,,,,,,,,,,,,,,,,,104,001,2021_Sep_27_1455,joplin1,2021.2.3,60.127229289998134,
_train_cond.csv,1 0 1 1 1 1 1 1 0 1,2,categoryB,j,,,0,3,3,2,2,2,30,8,,,,,,,,,,,,,,,,,,,j,1,0.2270518746227026,,,,,,,,,,,,,,,,,,,,,,,,,,,,,,,104,001,2021_Sep_27_1455,joplin1,2021.2.3,60.127229289998134,
_train_cond.csv,1 1 0 1 1 1 1 0 1 1,2,categoryB,j,,,0,3,3,2,2,3,31,12,,,,,,,,,,,,,,,,,,,j,1,0.17645599972456694,,,,,,,,,,,,,,,,,,,,,,,,,,,,,,,104,001,2021_Sep_27_1455,joplin1,2021.2.3,60.127229289998134,
_train_cond.csv,0 1 0 0 0 0 0 0 1 0,8,categoryA,f,,,0,3,3,2,2,4,32,1,,,,,,,,,,,,,,,,,,,f,1,0.19240929139778018,,,,,,,,,,,,,,,,,,,,,,,,,,,,,,,104,001,2021_Sep_27_1455,joplin1,2021.2.3,60.127229289998134,
_train_cond.csv,0 0 1 1 1 1 1 1 0 0,4,categoryB,j,,,0,3,3,2,2,5,33,13,,,,,,,,,,,,,,,,,,,f,0,0.2866515419445932,,,,,,,,,,,,,,,,,,,,,,,,,,,,,,,104,001,2021_Sep_27_1455,joplin1,2021.2.3,60.127229289998134,
_train_cond.csv,0 0 0 1 1 1 1 0 0 0,6,categoryA,f,,,0,3,3,2,2,6,34,3,,,,,,,,,,,,,,,,,,,j,0,0.5146538745611906,,,,,,,,,,,,,,,,,,,,,,,,,,,,,,,104,001,2021_Sep_27_1455,joplin1,2021.2.3,60.127229289998134,
_train_cond.csv,1 1 1 0 0 0 0 1 1 1,4,categoryB,j,,,0,3,3,2,2,7,35,10,,,,,,,,,,,,,,,,,,,j,1,0.48470162507146597,,,,,,,,,,,,,,,,,,,,,,,,,,,,,,,104,001,2021_Sep_27_1455,joplin1,2021.2.3,60.127229289998134,
_train_cond.csv,0 0 1 0 0 0 0 1 0 0,8,categoryA,f,,,0,3,3,2,2,8,36,5,,,,,,,,,,,,,,,,,,,None,0,,,,,,,,,,,,,,,,,,,,,,,,,,,,,,,,104,001,2021_Sep_27_1455,joplin1,2021.2.3,60.127229289998134,
_train_cond.csv,1 1 0 0 0 0 0 0 1 1,6,categoryA,f,,,0,3,3,2,2,9,37,6,,,,,,,,,,,,,,,,,,,j,0,0.6223937501199543,,,,,,,,,,,,,,,,,,,,,,,,,,,,,,,104,001,2021_Sep_27_1455,joplin1,2021.2.3,60.127229289998134,
_train_cond.csv,1 0 0 0 0 0 0 0 0 1,8,categoryA,f,,,0,3,3,2,2,10,38,0,,,,,,,,,,,,,,,,,,,f,1,0.0685811247676611,,,,,,,,,,,,,,,,,,,,,,,,,,,,,,,104,001,2021_Sep_27_1455,joplin1,2021.2.3,60.127229289998134,
_train_cond.csv,0 0 0 1 0 0 1 0 0 0,8,categoryA,f,,,0,3,3,2,2,11,39,4,,,,,,,,,,,,,,,,,,,f,1,0.5517562502063811,,,,,,,,,,,,,,,,,,,,,,,,,,,,,,,104,001,2021_Sep_27_1455,joplin1,2021.2.3,60.127229289998134,
_train_cond.csv,0 0 1 0 1 1 0 1 0 0,6,categoryA,f,,,0,3,3,2,2,12,40,2,,,,,,,,,,,,,,,,,,,f,1,0.28070895886048675,,,,,,,,,,,,,,,,,,,,,,,,,,,,,,,104,001,2021_Sep_27_1455,joplin1,2021.2.3,60.127229289998134,
_train_cond.csv,1 1 0 1 0 0 1 0 1 1,4,categoryB,j,,,0,3,3,2,2,13,41,9,,,,,,,,,,,,,,,,,,,j,1,0.22132949996739626,,,,,,,,,,,,,,,,,,,,,,,,,,,,,,,104,001,2021_Sep_27_1455,joplin1,2021.2.3,60.127229289998134,
_train_cond.csv,,,,,,,0,3,3,2,,,,,,,,,,,,,,,,,,,,,,,,,,space,43.745715874712914,,,,,,,,,,,,,,,,,,,,,,,,,,,,,104,001,2021_Sep_27_1455,joplin1,2021.2.3,60.127229289998134,
_train_cond.csv,0 1 1 1 1 1 1 1 1 0,2,categoryB,j,,,0,4,4,5,0,0,0,7,,,,,,,,,,,,,,,,,,,f,0,0.106413499917835,,,,,,,,,,,,,,,,,,,,,,,,,,,,,,,104,001,2021_Sep_27_1455,joplin1,2021.2.3,60.127229289998134,
_train_cond.csv,0 0 0 1 0 0 1 0 0 0,8,categoryA,f,,,0,4,4,5,0,1,1,4,,,,,,,,,,,,,,,,,,,f,1,0.49200037540867925,,,,,,,,,,,,,,,,,,,,,,,,,,,,,,,104,001,2021_Sep_27_1455,joplin1,2021.2.3,60.127229289998134,
_train_cond.csv,1 1 1 0 0 0 0 1 1 1,4,categoryB,j,,,0,4,4,5,0,2,2,10,,,,,,,,,,,,,,,,,,,j,1,0.24710545781999826,,,,,,,,,,,,,,,,,,,,,,,,,,,,,,,104,001,2021_Sep_27_1455,joplin1,2021.2.3,60.127229289998134,
_train_cond.csv,0 0 1 0 1 1 0 1 0 0,6,categoryA,f,,,0,4,4,5,0,3,3,2,,,,,,,,,,,,,,,,,,,j,0,0.1318203746341169,,,,,,,,,,,,,,,,,,,,,,,,,,,,,,,104,001,2021_Sep_27_1455,joplin1,2021.2.3,60.127229289998134,
_train_cond.csv,1 0 0 0 0 0 0 0 0 1,8,categoryA,f,,,0,4,4,5,0,4,4,0,,,,,,,,,,,,,,,,,,,f,1,0.3403920833952725,,,,,,,,,,,,,,,,,,,,,,,,,,,,,,,104,001,2021_Sep_27_1455,joplin1,2021.2.3,60.127229289998134,
_train_cond.csv,1 1 1 0 1 1 0 1 1 1,2,categoryB,j,,,0,4,4,5,0,5,5,11,,,,,,,,,,,,,,,,,,,j,1,0.23774304194375873,,,,,,,,,,,,,,,,,,,,,,,,,,,,,,,104,001,2021_Sep_27_1455,joplin1,2021.2.3,60.127229289998134,
_train_cond.csv,0 1 0 0 0 0 0 0 1 0,8,categoryA,f,,,0,4,4,5,0,6,6,1,,,,,,,,,,,,,,,,,,,f,1,0.10638358304277062,,,,,,,,,,,,,,,,,,,,,,,,,,,,,,,104,001,2021_Sep_27_1455,joplin1,2021.2.3,60.127229289998134,
_train_cond.csv,1 1 0 0 0 0 0 0 1 1,6,categoryA,f,,,0,4,4,5,0,7,7,6,,,,,,,,,,,,,,,,,,,j,0,0.08457712503150105,,,,,,,,,,,,,,,,,,,,,,,,,,,,,,,104,001,2021_Sep_27_1455,joplin1,2021.2.3,60.127229289998134,
_train_cond.csv,1 1 0 1 1 1 1 0 1 1,2,categoryB,j,,,0,4,4,5,0,8,8,12,,,,,,,,,,,,,,,,,,,f,0,1.9045556671917439,,,,,,,,,,,,,,,,,,,,,,,,,,,,,,,104,001,2021_Sep_27_1455,joplin1,2021.2.3,60.127229289998134,
_train_cond.csv,1 1 0 1 0 0 1 0 1 1,4,categoryB,j,,,0,4,4,5,0,9,9,9,,,,,,,,,,,,,,,,,,,j,1,0.33802158292382956,,,,,,,,,,,,,,,,,,,,,,,,,,,,,,,104,001,2021_Sep_27_1455,joplin1,2021.2.3,60.127229289998134,
_train_cond.csv,0 0 1 0 0 0 0 1 0 0,8,categoryA,f,,,0,4,4,5,0,10,10,5,,,,,,,,,,,,,,,,,,,j,0,0.9630779586732388,,,,,,,,,,,,,,,,,,,,,,,,,,,,,,,104,001,2021_Sep_27_1455,joplin1,2021.2.3,60.127229289998134,
_train_cond.csv,0 0 1 1 1 1 1 1 0 0,4,categoryB,j,,,0,4,4,5,0,11,11,13,,,,,,,,,,,,,,,,,,,None,0,,,,,,,,,,,,,,,,,,,,,,,,,,,,,,,,104,001,2021_Sep_27_1455,joplin1,2021.2.3,60.127229289998134,
_train_cond.csv,0 0 0 1 1 1 1 0 0 0,6,categoryA,f,,,0,4,4,5,0,12,12,3,,,,,,,,,,,,,,,,,,,j,0,1.0028714588843286,,,,,,,,,,,,,,,,,,,,,,,,,,,,,,,104,001,2021_Sep_27_1455,joplin1,2021.2.3,60.127229289998134,
_train_cond.csv,1 0 1 1 1 1 1 1 0 1,2,categoryB,j,,,0,4,4,5,0,13,13,8,,,,,,,,,,,,,,,,,,,f,0,0.5606696656905115,,,,,,,,,,,,,,,,,,,,,,,,,,,,,,,104,001,2021_Sep_27_1455,joplin1,2021.2.3,60.127229289998134,
_train_cond.csv,1 1 0 1 1 1 1 0 1 1,2,categoryB,j,,,0,4,4,5,1,0,14,12,,,,,,,,,,,,,,,,,,,j,1,0.4407739997841418,,,,,,,,,,,,,,,,,,,,,,,,,,,,,,,104,001,2021_Sep_27_1455,joplin1,2021.2.3,60.127229289998134,
_train_cond.csv,0 1 0 0 0 0 0 0 1 0,8,categoryA,f,,,0,4,4,5,1,1,15,1,,,,,,,,,,,,,,,,,,,f,1,0.2938229590654373,,,,,,,,,,,,,,,,,,,,,,,,,,,,,,,104,001,2021_Sep_27_1455,joplin1,2021.2.3,60.127229289998134,
_train_cond.csv,1 1 0 0 0 0 0 0 1 1,6,categoryA,f,,,0,4,4,5,1,2,16,6,,,,,,,,,,,,,,,,,,,f,1,0.17716595903038979,,,,,,,,,,,,,,,,,,,,,,,,,,,,,,,104,001,2021_Sep_27_1455,joplin1,2021.2.3,60.127229289998134,
_train_cond.csv,0 1 1 1 1 1 1 1 1 0,2,categoryB,j,,,0,4,4,5,1,3,17,7,,,,,,,,,,,,,,,,,,,j,1,0.2247381671331823,,,,,,,,,,,,,,,,,,,,,,,,,,,,,,,104,001,2021_Sep_27_1455,joplin1,2021.2.3,60.127229289998134,
_train_cond.csv,1 0 1 1 1 1 1 1 0 1,2,categoryB,j,,,0,4,4,5,1,4,18,8,,,,,,,,,,,,,,,,,,,j,1,0.41304341703653336,,,,,,,,,,,,,,,,,,,,,,,,,,,,,,,104,001,2021_Sep_27_1455,joplin1,2021.2.3,60.127229289998134,
_train_cond.csv,1 1 1 0 0 0 0 1 1 1,4,categoryB,j,,,0,4,4,5,1,5,19,10,,,,,,,,,,,,,,,,,,,f,0,0.33246941678225994,,,,,,,,,,,,,,,,,,,,,,,,,,,,,,,104,001,2021_Sep_27_1455,joplin1,2021.2.3,60.127229289998134,
_train_cond.csv,0 0 1 0 1 1 0 1 0 0,6,categoryA,f,,,0,4,4,5,1,6,20,2,,,,,,,,,,,,,,,,,,,j,0,0.07006424991413951,,,,,,,,,,,,,,,,,,,,,,,,,,,,,,,104,001,2021_Sep_27_1455,joplin1,2021.2.3,60.127229289998134,
_train_cond.csv,0 0 1 1 1 1 1 1 0 0,4,categoryB,j,,,0,4,4,5,1,7,21,13,,,,,,,,,,,,,,,,,,,j,1,0.08208583295345306,,,,,,,,,,,,,,,,,,,,,,,,,,,,,,,104,001,2021_Sep_27_1455,joplin1,2021.2.3,60.127229289998134,
_train_cond.csv,1 1 1 0 1 1 0 1 1 1,2,categoryB,j,,,0,4,4,5,1,8,22,11,,,,,,,,,,,,,,,,,,,f,0,0.2285077078267932,,,,,,,,,,,,,,,,,,,,,,,,,,,,,,,104,001,2021_Sep_27_1455,joplin1,2021.2.3,60.127229289998134,
_train_cond.csv,1 1 0 1 0 0 1 0 1 1,4,categoryB,j,,,0,4,4,5,1,9,23,9,,,,,,,,,,,,,,,,,,,j,1,0.28134454088285565,,,,,,,,,,,,,,,,,,,,,,,,,,,,,,,104,001,2021_Sep_27_1455,joplin1,2021.2.3,60.127229289998134,
_train_cond.csv,0 0 0 1 0 0 1 0 0 0,8,categoryA,f,,,0,4,4,5,1,10,24,4,,,,,,,,,,,,,,,,,,,j,0,0.29379829205572605,,,,,,,,,,,,,,,,,,,,,,,,,,,,,,,104,001,2021_Sep_27_1455,joplin1,2021.2.3,60.127229289998134,
_train_cond.csv,0 0 0 1 1 1 1 0 0 0,6,categoryA,f,,,0,4,4,5,1,11,25,3,,,,,,,,,,,,,,,,,,,f,1,0.35313866613432765,,,,,,,,,,,,,,,,,,,,,,,,,,,,,,,104,001,2021_Sep_27_1455,joplin1,2021.2.3,60.127229289998134,
_train_cond.csv,0 0 1 0 0 0 0 1 0 0,8,categoryA,f,,,0,4,4,5,1,12,26,5,,,,,,,,,,,,,,,,,,,f,1,0.40086279110983014,,,,,,,,,,,,,,,,,,,,,,,,,,,,,,,104,001,2021_Sep_27_1455,joplin1,2021.2.3,60.127229289998134,
_train_cond.csv,1 0 0 0 0 0 0 0 0 1,8,categoryA,f,,,0,4,4,5,1,13,27,0,,,,,,,,,,,,,,,,,,,j,0,1.1829562499187887,,,,,,,,,,,,,,,,,,,,,,,,,,,,,,,104,001,2021_Sep_27_1455,joplin1,2021.2.3,60.127229289998134,
_train_cond.csv,1 0 0 0 0 0 0 0 0 1,8,categoryA,f,,,0,4,4,5,2,0,28,0,,,,,,,,,,,,,,,,,,,j,0,0.5911133750341833,,,,,,,,,,,,,,,,,,,,,,,,,,,,,,,104,001,2021_Sep_27_1455,joplin1,2021.2.3,60.127229289998134,
_train_cond.csv,0 0 1 0 0 0 0 1 0 0,8,categoryA,f,,,0,4,4,5,2,1,29,5,,,,,,,,,,,,,,,,,,,f,1,0.3578771250322461,,,,,,,,,,,,,,,,,,,,,,,,,,,,,,,104,001,2021_Sep_27_1455,joplin1,2021.2.3,60.127229289998134,
_train_cond.csv,1 1 0 0 0 0 0 0 1 1,6,categoryA,f,,,0,4,4,5,2,2,30,6,,,,,,,,,,,,,,,,,,,f,1,0.3819597908295691,,,,,,,,,,,,,,,,,,,,,,,,,,,,,,,104,001,2021_Sep_27_1455,joplin1,2021.2.3,60.127229289998134,
_train_cond.csv,0 0 0 1 0 0 1 0 0 0,8,categoryA,f,,,0,4,4,5,2,3,31,4,,,,,,,,,,,,,,,,,,,f,1,0.37441404163837433,,,,,,,,,,,,,,,,,,,,,,,,,,,,,,,104,001,2021_Sep_27_1455,joplin1,2021.2.3,60.127229289998134,
_train_cond.csv,1 1 0 1 0 0 1 0 1 1,4,categoryB,j,,,0,4,4,5,2,4,32,9,,,,,,,,,,,,,,,,,,,f,0,0.8057304997928441,,,,,,,,,,,,,,,,,,,,,,,,,,,,,,,104,001,2021_Sep_27_1455,joplin1,2021.2.3,60.127229289998134,
_train_cond.csv,1 0 1 1 1 1 1 1 0 1,2,categoryB,j,,,0,4,4,5,2,5,33,8,,,,,,,,,,,,,,,,,,,None,0,,,,,,,,,,,,,,,,,,,,,,,,,,,,,,,,104,001,2021_Sep_27_1455,joplin1,2021.2.3,60.127229289998134,
_train_cond.csv,0 1 1 1 1 1 1 1 1 0,2,categoryB,j,,,0,4,4,5,2,6,34,7,,,,,,,,,,,,,,,,,,,f,0,0.31578429182991385,,,,,,,,,,,,,,,,,,,,,,,,,,,,,,,104,001,2021_Sep_27_1455,joplin1,2021.2.3,60.127229289998134,
_train_cond.csv,1 1 1 0 1 1 0 1 1 1,2,categoryB,j,,,0,4,4,5,2,7,35,11,,,,,,,,,,,,,,,,,,,j,1,0.4854400842450559,,,,,,,,,,,,,,,,,,,,,,,,,,,,,,,104,001,2021_Sep_27_1455,joplin1,2021.2.3,60.127229289998134,
_train_cond.csv,0 0 1 0 1 1 0 1 0 0,6,categoryA,f,,,0,4,4,5,2,8,36,2,,,,,,,,,,,,,,,,,,,f,1,0.07239466672763228,,,,,,,,,,,,,,,,,,,,,,,,,,,,,,,104,001,2021_Sep_27_1455,joplin1,2021.2.3,60.127229289998134,
_train_cond.csv,1 1 1 0 0 0 0 1 1 1,4,categoryB,j,,,0,4,4,5,2,9,37,10,,,,,,,,,,,,,,,,,,,j,1,0.25198808312416077,,,,,,,,,,,,,,,,,,,,,,,,,,,,,,,104,001,2021_Sep_27_1455,joplin1,2021.2.3,60.127229289998134,
_train_cond.csv,0 0 1 1 1 1 1 1 0 0,4,categoryB,j,,,0,4,4,5,2,10,38,13,,,,,,,,,,,,,,,,,,,f,0,0.8397630830295384,,,,,,,,,,,,,,,,,,,,,,,,,,,,,,,104,001,2021_Sep_27_1455,joplin1,2021.2.3,60.127229289998134,
_train_cond.csv,0 1 0 0 0 0 0 0 1 0,8,categoryA,f,,,0,4,4,5,2,11,39,1,,,,,,,,,,,,,,,,,,,j,0,0.6840731659904122,,,,,,,,,,,,,,,,,,,,,,,,,,,,,,,104,001,2021_Sep_27_1455,joplin1,2021.2.3,60.127229289998134,
_train_cond.csv,1 1 0 1 1 1 1 0 1 1,2,categoryB,j,,,0,4,4,5,2,12,40,12,,,,,,,,,,,,,,,,,,,j,1,0.12015129113569856,,,,,,,,,,,,,,,,,,,,,,,,,,,,,,,104,001,2021_Sep_27_1455,joplin1,2021.2.3,60.127229289998134,
_train_cond.csv,0 0 0 1 1 1 1 0 0 0,6,categoryA,f,,,0,4,4,5,2,13,41,3,,,,,,,,,,,,,,,,,,,None,0,,,,,,,,,,,,,,,,,,,,,,,,,,,,,,,,104,001,2021_Sep_27_1455,joplin1,2021.2.3,60.127229289998134,
_train_cond.csv,,,,,,,0,4,4,5,,,,,,,,,,,,,,,,,,,,,,,,,,space,11.312008624896407,,,,,,,,,,,,,,,,,,,,,,,,,,,,,104,001,2021_Sep_27_1455,joplin1,2021.2.3,60.127229289998134,
_train_cond.csv,1 1 1 0 0 0 0 1 1 1,4,categoryB,j,,,0,5,5,1,0,0,0,10,,,,,,,,,,,,,,,,,,,f,0,1.3297916250303388,,,,,,,,,,,,,,,,,,,,,,,,,,,,,,,104,001,2021_Sep_27_1455,joplin1,2021.2.3,60.127229289998134,
_train_cond.csv,1 0 0 0 0 0 0 0 0 1,8,categoryA,f,,,0,5,5,1,0,1,1,0,,,,,,,,,,,,,,,,,,,j,0,0.5240739998407662,,,,,,,,,,,,,,,,,,,,,,,,,,,,,,,104,001,2021_Sep_27_1455,joplin1,2021.2.3,60.127229289998134,
_train_cond.csv,0 0 0 1 1 1 1 0 0 0,6,categoryA,f,,,0,5,5,1,0,2,2,3,,,,,,,,,,,,,,,,,,,f,1,0.7866668337956071,,,,,,,,,,,,,,,,,,,,,,,,,,,,,,,104,001,2021_Sep_27_1455,joplin1,2021.2.3,60.127229289998134,
_train_cond.csv,0 0 0 1 0 0 1 0 0 0,8,categoryA,f,,,0,5,5,1,0,3,3,4,,,,,,,,,,,,,,,,,,,None,0,,,,,,,,,,,,,,,,,,,,,,,,,,,,,,,,104,001,2021_Sep_27_1455,joplin1,2021.2.3,60.127229289998134,
_train_cond.csv,0 1 0 0 0 0 0 0 1 0,8,categoryA,f,,,0,5,5,1,0,4,4,1,,,,,,,,,,,,,,,,,,,f,1,0.12287079216912389,,,,,,,,,,,,,,,,,,,,,,,,,,,,,,,104,001,2021_Sep_27_1455,joplin1,2021.2.3,60.127229289998134,
_train_cond.csv,0 0 1 0 1 1 0 1 0 0,6,categoryA,f,,,0,5,5,1,0,5,5,2,,,,,,,,,,,,,,,,,,,f,1,0.3958790418691933,,,,,,,,,,,,,,,,,,,,,,,,,,,,,,,104,001,2021_Sep_27_1455,joplin1,2021.2.3,60.127229289998134,
_train_cond.csv,1 1 0 1 0 0 1 0 1 1,4,categoryB,j,,,0,5,5,1,0,6,6,9,,,,,,,,,,,,,,,,,,,None,0,,,,,,,,,,,,,,,,,,,,,,,,,,,,,,,,104,001,2021_Sep_27_1455,joplin1,2021.2.3,60.127229289998134,
_train_cond.csv,1 1 0 0 0 0 0 0 1 1,6,categoryA,f,,,0,5,5,1,0,7,7,6,,,,,,,,,,,,,,,,,,,j,0,0.73085124976933,,,,,,,,,,,,,,,,,,,,,,,,,,,,,,,104,001,2021_Sep_27_1455,joplin1,2021.2.3,60.127229289998134,
_train_cond.csv,0 0 1 1 1 1 1 1 0 0,4,categoryB,j,,,0,5,5,1,0,8,8,13,,,,,,,,,,,,,,,,,,,f,0,0.09198779100552201,,,,,,,,,,,,,,,,,,,,,,,,,,,,,,,104,001,2021_Sep_27_1455,joplin1,2021.2.3,60.127229289998134,
_train_cond.csv,1 1 1 0 1 1 0 1 1 1,2,categoryB,j,,,0,5,5,1,0,9,9,11,,,,,,,,,,,,,,,,,,,j,1,0.766490750014782,,,,,,,,,,,,,,,,,,,,,,,,,,,,,,,104,001,2021_Sep_27_1455,joplin1,2021.2.3,60.127229289998134,
_train_cond.csv,1 1 0 1 1 1 1 0 1 1,2,categoryB,j,,,0,5,5,1,0,10,10,12,,,,,,,,,,,,,,,,,,,None,0,,,,,,,,,,,,,,,,,,,,,,,,,,,,,,,,104,001,2021_Sep_27_1455,joplin1,2021.2.3,60.127229289998134,
_train_cond.csv,0 0 1 0 0 0 0 1 0 0,8,categoryA,f,,,0,5,5,1,0,11,11,5,,,,,,,,,,,,,,,,,,,f,1,0.269618459045887,,,,,,,,,,,,,,,,,,,,,,,,,,,,,,,104,001,2021_Sep_27_1455,joplin1,2021.2.3,60.127229289998134,
_train_cond.csv,1 0 1 1 1 1 1 1 0 1,2,categoryB,j,,,0,5,5,1,0,12,12,8,,,,,,,,,,,,,,,,,,,j,1,0.4637906248681247,,,,,,,,,,,,,,,,,,,,,,,,,,,,,,,104,001,2021_Sep_27_1455,joplin1,2021.2.3,60.127229289998134,
_train_cond.csv,0 1 1 1 1 1 1 1 1 0,2,categoryB,j,,,0,5,5,1,0,13,13,7,,,,,,,,,,,,,,,,,,,f,0,1.388833416160196,,,,,,,,,,,,,,,,,,,,,,,,,,,,,,,104,001,2021_Sep_27_1455,joplin1,2021.2.3,60.127229289998134,
_train_cond.csv,0 1 1 1 1 1 1 1 1 0,2,categoryB,j,,,0,5,5,1,1,0,14,7,,,,,,,,,,,,,,,,,,,None,0,,,,,,,,,,,,,,,,,,,,,,,,,,,,,,,,104,001,2021_Sep_27_1455,joplin1,2021.2.3,60.127229289998134,
_train_cond.csv,1 1 0 1 0 0 1 0 1 1,4,categoryB,j,,,0,5,5,1,1,1,15,9,,,,,,,,,,,,,,,,,,,j,1,0.0984894591383636,,,,,,,,,,,,,,,,,,,,,,,,,,,,,,,104,001,2021_Sep_27_1455,joplin1,2021.2.3,60.127229289998134,
_train_cond.csv,1 0 1 1 1 1 1 1 0 1,2,categoryB,j,,,0,5,5,1,1,2,16,8,,,,,,,,,,,,,,,,,,,f,0,0.16522433329373598,,,,,,,,,,,,,,,,,,,,,,,,,,,,,,,104,001,2021_Sep_27_1455,joplin1,2021.2.3,60.127229289998134,
_train_cond.csv,0 0 1 1 1 1 1 1 0 0,4,categoryB,j,,,0,5,5,1,1,3,17,13,,,,,,,,,,,,,,,,,,,j,1,0.0768317086622119,,,,,,,,,,,,,,,,,,,,,,,,,,,,,,,104,001,2021_Sep_27_1455,joplin1,2021.2.3,60.127229289998134,
_train_cond.csv,1 1 0 1 1 1 1 0 1 1,2,categoryB,j,,,0,5,5,1,1,4,18,12,,,,,,,,,,,,,,,,,,,j,1,0.7689885422587395,,,,,,,,,,,,,,,,,,,,,,,,,,,,,,,104,001,2021_Sep_27_1455,joplin1,2021.2.3,60.127229289998134,
_train_cond.csv,1 1 1 0 0 0 0 1 1 1,4,categoryB,j,,,0,5,5,1,1,5,19,10,,,,,,,,,,,,,,,,,,,None,0,,,,,,,,,,,,,,,,,,,,,,,,,,,,,,,,104,001,2021_Sep_27_1455,joplin1,2021.2.3,60.127229289998134,
_train_cond.csv,0 0 1 0 1 1 0 1 0 0,6,categoryA,f,,,0,5,5,1,1,6,20,2,,,,,,,,,,,,,,,,,,,f,1,0.5923996670171618,,,,,,,,,,,,,,,,,,,,,,,,,,,,,,,104,001,2021_Sep_27_1455,joplin1,2021.2.3,60.127229289998134,
_train_cond.csv,0 0 0 1 0 0 1 0 0 0,8,categoryA,f,,,0,5,5,1,1,7,21,4,,,,,,,,,,,,,,,,,,,f,1,0.4062622501514852,,,,,,,,,,,,,,,,,,,,,,,,,,,,,,,104,001,2021_Sep_27_1455,joplin1,2021.2.3,60.127229289998134,
_train_cond.csv,1 0 0 0 0 0 0 0 0 1,8,categoryA,f,,,0,5,5,1,1,8,22,0,,,,,,,,,,,,,,,,,,,f,1,2.2044375422410667,,,,,,,,,,,,,,,,,,,,,,,,,,,,,,,104,001,2021_Sep_27_1455,joplin1,2021.2.3,60.127229289998134,
_train_cond.csv,1 1 1 0 1 1 0 1 1 1,2,categoryB,j,,,0,5,5,1,1,9,23,11,,,,,,,,,,,,,,,,,,,j,1,2.1245567919686437,,,,,,,,,,,,,,,,,,,,,,,,,,,,,,,104,001,2021_Sep_27_1455,joplin1,2021.2.3,60.127229289998134,
_train_cond.csv,0 0 0 1 1 1 1 0 0 0,6,categoryA,f,,,0,5,5,1,1,10,24,3,,,,,,,,,,,,,,,,,,,f,1,0.6204118332825601,,,,,,,,,,,,,,,,,,,,,,,,,,,,,,,104,001,2021_Sep_27_1455,joplin1,2021.2.3,60.127229289998134,
_train_cond.csv,1 1 0 0 0 0 0 0 1 1,6,categoryA,f,,,0,5,5,1,1,11,25,6,,,,,,,,,,,,,,,,,,,None,0,,,,,,,,,,,,,,,,,,,,,,,,,,,,,,,,104,001,2021_Sep_27_1455,joplin1,2021.2.3,60.127229289998134,
_train_cond.csv,0 0 1 0 0 0 0 1 0 0,8,categoryA,f,,,0,5,5,1,1,12,26,5,,,,,,,,,,,,,,,,,,,j,0,2.2110374593175948,,,,,,,,,,,,,,,,,,,,,,,,,,,,,,,104,001,2021_Sep_27_1455,joplin1,2021.2.3,60.127229289998134,
_train_cond.csv,0 1 0 0 0 0 0 0 1 0,8,categoryA,f,,,0,5,5,1,1,13,27,1,,,,,,,,,,,,,,,,,,,f,1,0.05596470879390836,,,,,,,,,,,,,,,,,,,,,,,,,,,,,,,104,001,2021_Sep_27_1455,joplin1,2021.2.3,60.127229289998134,
_train_cond.csv,0 0 0 1 0 0 1 0 0 0,8,categoryA,f,,,0,5,5,1,2,0,28,4,,,,,,,,,,,,,,,,,,,None,0,,,,,,,,,,,,,,,,,,,,,,,,,,,,,,,,104,001,2021_Sep_27_1455,joplin1,2021.2.3,60.127229289998134,
_train_cond.csv,0 1 0 0 0 0 0 0 1 0,8,categoryA,f,,,0,5,5,1,2,1,29,1,,,,,,,,,,,,,,,,,,,j,0,1.8593920422717929,,,,,,,,,,,,,,,,,,,,,,,,,,,,,,,104,001,2021_Sep_27_1455,joplin1,2021.2.3,60.127229289998134,
_train_cond.csv,1 0 1 1 1 1 1 1 0 1,2,categoryB,j,,,0,5,5,1,2,2,30,8,,,,,,,,,,,,,,,,,,,j,1,0.5349355000071228,,,,,,,,,,,,,,,,,,,,,,,,,,,,,,,104,001,2021_Sep_27_1455,joplin1,2021.2.3,60.127229289998134,
_train_cond.csv,1 1 0 0 0 0 0 0 1 1,6,categoryA,f,,,0,5,5,1,2,3,31,6,,,,,,,,,,,,,,,,,,,f,1,2.200732999946922,,,,,,,,,,,,,,,,,,,,,,,,,,,,,,,104,001,2021_Sep_27_1455,joplin1,2021.2.3,60.127229289998134,
_train_cond.csv,1 1 1 0 1 1 0 1 1 1,2,categoryB,j,,,0,5,5,1,2,4,32,11,,,,,,,,,,,,,,,,,,,j,1,1.8785011670552194,,,,,,,,,,,,,,,,,,,,,,,,,,,,,,,104,001,2021_Sep_27_1455,joplin1,2021.2.3,60.127229289998134,
_train_cond.csv,1 1 1 0 0 0 0 1 1 1,4,categoryB,j,,,0,5,5,1,2,5,33,10,,,,,,,,,,,,,,,,,,,j,1,0.33781595807522535,,,,,,,,,,,,,,,,,,,,,,,,,,,,,,,104,001,2021_Sep_27_1455,joplin1,2021.2.3,60.127229289998134,
_train_cond.csv,1 0 0 0 0 0 0 0 0 1,8,categoryA,f,,,0,5,5,1,2,6,34,0,,,,,,,,,,,,,,,,,,,None,0,,,,,,,,,,,,,,,,,,,,,,,,,,,,,,,,104,001,2021_Sep_27_1455,joplin1,2021.2.3,60.127229289998134,
_train_cond.csv,1 1 0 1 0 0 1 0 1 1,4,categoryB,j,,,0,5,5,1,2,7,35,9,,,,,,,,,,,,,,,,,,,f,0,0.08258683327585459,,,,,,,,,,,,,,,,,,,,,,,,,,,,,,,104,001,2021_Sep_27_1455,joplin1,2021.2.3,60.127229289998134,
_train_cond.csv,0 0 1 0 1 1 0 1 0 0,6,categoryA,f,,,0,5,5,1,2,8,36,2,,,,,,,,,,,,,,,,,,,j,0,0.18146220780909061,,,,,,,,,,,,,,,,,,,,,,,,,,,,,,,104,001,2021_Sep_27_1455,joplin1,2021.2.3,60.127229289998134,
_train_cond.csv,0 0 1 1 1 1 1 1 0 0,4,categoryB,j,,,0,5,5,1,2,9,37,13,,,,,,,,,,,,,,,,,,,f,0,0.0451495423913002,,,,,,,,,,,,,,,,,,,,,,,,,,,,,,,104,001,2021_Sep_27_1455,joplin1,2021.2.3,60.127229289998134,
_train_cond.csv,1 1 0 1 1 1 1 0 1 1,2,categoryB,j,,,0,5,5,1,2,10,38,12,,,,,,,,,,,,,,,,,,,None,0,,,,,,,,,,,,,,,,,,,,,,,,,,,,,,,,104,001,2021_Sep_27_1455,joplin1,2021.2.3,60.127229289998134,
_train_cond.csv,0 0 0 1 1 1 1 0 0 0,6,categoryA,f,,,0,5,5,1,2,11,39,3,,,,,,,,,,,,,,,,,,,f,1,0.5210961666889489,,,,,,,,,,,,,,,,,,,,,,,,,,,,,,,104,001,2021_Sep_27_1455,joplin1,2021.2.3,60.127229289998134,
_train_cond.csv,0 1 1 1 1 1 1 1 1 0,2,categoryB,j,,,0,5,5,1,2,12,40,7,,,,,,,,,,,,,,,,,,,f,0,0.25063220830634236,,,,,,,,,,,,,,,,,,,,,,,,,,,,,,,104,001,2021_Sep_27_1455,joplin1,2021.2.3,60.127229289998134,
_train_cond.csv,0 0 1 0 0 0 0 1 0 0,8,categoryA,f,,,0,5,5,1,2,13,41,5,,,,,,,,,,,,,,,,,,,f,1,0.16684016678482294,,,,,,,,,,,,,,,,,,,,,,,,,,,,,,,104,001,2021_Sep_27_1455,joplin1,2021.2.3,60.127229289998134,
_train_cond.csv,,,,,,,0,5,5,1,,,,,,,,,,,,,,,,,,,,,,,,,,space,11.758535208180547,,,,,,,,,,,,,,,,,,,,,,,,,,,,,104,001,2021_Sep_27_1455,joplin1,2021.2.3,60.127229289998134,
_train_cond.csv,1 0 0 0 0 0 0 0 0 1,8,categoryA,f,,,0,6,6,6,0,0,0,0,,,,,,,,,,,,,,,,,,,j,0,0.11939333286136389,,,,,,,,,,,,,,,,,,,,,,,,,,,,,,,104,001,2021_Sep_27_1455,joplin1,2021.2.3,60.127229289998134,
_train_cond.csv,1 1 0 1 0 0 1 0 1 1,4,categoryB,j,,,0,6,6,6,0,1,1,9,,,,,,,,,,,,,,,,,,,j,1,0.05727962497621775,,,,,,,,,,,,,,,,,,,,,,,,,,,,,,,104,001,2021_Sep_27_1455,joplin1,2021.2.3,60.127229289998134,
_train_cond.csv,0 0 0 1 0 0 1 0 0 0,8,categoryA,f,,,0,6,6,6,0,2,2,4,,,,,,,,,,,,,,,,,,,f,1,0.8373255841434002,,,,,,,,,,,,,,,,,,,,,,,,,,,,,,,104,001,2021_Sep_27_1455,joplin1,2021.2.3,60.127229289998134,
_train_cond.csv,1 0 1 1 1 1 1 1 0 1,2,categoryB,j,,,0,6,6,6,0,3,3,8,,,,,,,,,,,,,,,,,,,None,0,,,,,,,,,,,,,,,,,,,,,,,,,,,,,,,,104,001,2021_Sep_27_1455,joplin1,2021.2.3,60.127229289998134,
_train_cond.csv,1 1 0 1 1 1 1 0 1 1,2,categoryB,j,,,0,6,6,6,0,4,4,12,,,,,,,,,,,,,,,,,,,j,1,0.15365224983543158,,,,,,,,,,,,,,,,,,,,,,,,,,,,,,,104,001,2021_Sep_27_1455,joplin1,2021.2.3,60.127229289998134,
_train_cond.csv,0 0 0 1 1 1 1 0 0 0,6,categoryA,f,,,0,6,6,6,0,5,5,3,,,,,,,,,,,,,,,,,,,f,1,0.17722349986433983,,,,,,,,,,,,,,,,,,,,,,,,,,,,,,,104,001,2021_Sep_27_1455,joplin1,2021.2.3,60.127229289998134,
_train_cond.csv,1 1 1 0 1 1 0 1 1 1,2,categoryB,j,,,0,6,6,6,0,6,6,11,,,,,,,,,,,,,,,,,,,f,0,0.5691299578174949,,,,,,,,,,,,,,,,,,,,,,,,,,,,,,,104,001,2021_Sep_27_1455,joplin1,2021.2.3,60.127229289998134,
_train_cond.csv,0 0 1 0 1 1 0 1 0 0,6,categoryA,f,,,0,6,6,6,0,7,7,2,,,,,,,,,,,,,,,,,,,j,0,2.1595408329740167,,,,,,,,,,,,,,,,,,,,,,,,,,,,,,,104,001,2021_Sep_27_1455,joplin1,2021.2.3,60.127229289998134,
_train_cond.csv,1 1 1 0 0 0 0 1 1 1,4,categoryB,j,,,0,6,6,6,0,8,8,10,,,,,,,,,,,,,,,,,,,j,1,0.2718783747404814,,,,,,,,,,,,,,,,,,,,,,,,,,,,,,,104,001,2021_Sep_27_1455,joplin1,2021.2.3,60.127229289998134,
_train_cond.csv,0 0 1 0 0 0 0 1 0 0,8,categoryA,f,,,0,6,6,6,0,9,9,5,,,,,,,,,,,,,,,,,,,None,0,,,,,,,,,,,,,,,,,,,,,,,,,,,,,,,,104,001,2021_Sep_27_1455,joplin1,2021.2.3,60.127229289998134,
_train_cond.csv,0 1 0 0 0 0 0 0 1 0,8,categoryA,f,,,0,6,6,6,0,10,10,1,,,,,,,,,,,,,,,,,,,f,1,0.45866112504154444,,,,,,,,,,,,,,,,,,,,,,,,,,,,,,,104,001,2021_Sep_27_1455,joplin1,2021.2.3,60.127229289998134,
_train_cond.csv,1 1 0 0 0 0 0 0 1 1,6,categoryA,f,,,0,6,6,6,0,11,11,6,,,,,,,,,,,,,,,,,,,j,0,0.26176562532782555,,,,,,,,,,,,,,,,,,,,,,,,,,,,,,,104,001,2021_Sep_27_1455,joplin1,2021.2.3,60.127229289998134,
_train_cond.csv,0 0 1 1 1 1 1 1 0 0,4,categoryB,j,,,0,6,6,6,0,12,12,13,,,,,,,,,,,,,,,,,,,None,0,,,,,,,,,,,,,,,,,,,,,,,,,,,,,,,,104,001,2021_Sep_27_1455,joplin1,2021.2.3,60.127229289998134,
_train_cond.csv,0 1 1 1 1 1 1 1 1 0,2,categoryB,j,,,0,6,6,6,0,13,13,7,,,,,,,,,,,,,,,,,,,f,0,0.4899876248091459,,,,,,,,,,,,,,,,,,,,,,,,,,,,,,,104,001,2021_Sep_27_1455,joplin1,2021.2.3,60.127229289998134,
_train_cond.csv,1 0 0 0 0 0 0 0 0 1,8,categoryA,f,,,0,6,6,6,1,0,14,0,,,,,,,,,,,,,,,,,,,j,0,0.06131254183128476,,,,,,,,,,,,,,,,,,,,,,,,,,,,,,,104,001,2021_Sep_27_1455,joplin1,2021.2.3,60.127229289998134,
_train_cond.csv,0 0 1 1 1 1 1 1 0 0,4,categoryB,j,,,0,6,6,6,1,1,15,13,,,,,,,,,,,,,,,,,,,f,0,0.2646572501398623,,,,,,,,,,,,,,,,,,,,,,,,,,,,,,,104,001,2021_Sep_27_1455,joplin1,2021.2.3,60.127229289998134,
_train_cond.csv,1 1 0 1 0 0 1 0 1 1,4,categoryB,j,,,0,6,6,6,1,2,16,9,,,,,,,,,,,,,,,,,,,j,1,0.18101670825853944,,,,,,,,,,,,,,,,,,,,,,,,,,,,,,,104,001,2021_Sep_27_1455,joplin1,2021.2.3,60.127229289998134,
_train_cond.csv,1 1 0 0 0 0 0 0 1 1,6,categoryA,f,,,0,6,6,6,1,3,17,6,,,,,,,,,,,,,,,,,,,j,0,0.3718533329665661,,,,,,,,,,,,,,,,,,,,,,,,,,,,,,,104,001,2021_Sep_27_1455,joplin1,2021.2.3,60.127229289998134,
_train_cond.csv,0 0 1 0 0 0 0 1 0 0,8,categoryA,f,,,0,6,6,6,1,4,18,5,,,,,,,,,,,,,,,,,,,f,1,0.2825103341601789,,,,,,,,,,,,,,,,,,,,,,,,,,,,,,,104,001,2021_Sep_27_1455,joplin1,2021.2.3,60.127229289998134,
_train_cond.csv,0 1 0 0 0 0 0 0 1 0,8,categoryA,f,,,0,6,6,6,1,5,19,1,,,,,,,,,,,,,,,,,,,f,1,0.031012707855552435,,,,,,,,,,,,,,,,,,,,,,,,,,,,,,,104,001,2021_Sep_27_1455,joplin1,2021.2.3,60.127229289998134,
_train_cond.csv,0 0 0 1 0 0 1 0 0 0,8,categoryA,f,,,0,6,6,6,1,6,20,4,,,,,,,,,,,,,,,,,,,f,1,0.25312983291223645,,,,,,,,,,,,,,,,,,,,,,,,,,,,,,,104,001,2021_Sep_27_1455,joplin1,2021.2.3,60.127229289998134,
_train_cond.csv,0 0 1 0 1 1 0 1 0 0,6,categoryA,f,,,0,6,6,6,1,7,21,2,,,,,,,,,,,,,,,,,,,f,1,0.5365680828690529,,,,,,,,,,,,,,,,,,,,,,,,,,,,,,,104,001,2021_Sep_27_1455,joplin1,2021.2.3,60.127229289998134,
_train_cond.csv,0 0 0 1 1 1 1 0 0 0,6,categoryA,f,,,0,6,6,6,1,8,22,3,,,,,,,,,,,,,,,,,,,f,1,0.37054862501099706,,,,,,,,,,,,,,,,,,,,,,,,,,,,,,,104,001,2021_Sep_27_1455,joplin1,2021.2.3,60.127229289998134,
_train_cond.csv,1 1 0 1 1 1 1 0 1 1,2,categoryB,j,,,0,6,6,6,1,9,23,12,,,,,,,,,,,,,,,,,,,j,1,0.7466322500258684,,,,,,,,,,,,,,,,,,,,,,,,,,,,,,,104,001,2021_Sep_27_1455,joplin1,2021.2.3,60.127229289998134,
_train_cond.csv,1 1 1 0 0 0 0 1 1 1,4,categoryB,j,,,0,6,6,6,1,10,24,10,,,,,,,,,,,,,,,,,,,None,0,,,,,,,,,,,,,,,,,,,,,,,,,,,,,,,,104,001,2021_Sep_27_1455,joplin1,2021.2.3,60.127229289998134,
_train_cond.csv,0 1 1 1 1 1 1 1 1 0,2,categoryB,j,,,0,6,6,6,1,11,25,7,,,,,,,,,,,,,,,,,,,f,0,0.5946933338418603,,,,,,,,,,,,,,,,,,,,,,,,,,,,,,,104,001,2021_Sep_27_1455,joplin1,2021.2.3,60.127229289998134,
_train_cond.csv,1 1 1 0 1 1 0 1 1 1,2,categoryB,j,,,0,6,6,6,1,12,26,11,,,,,,,,,,,,,,,,,,,None,0,,,,,,,,,,,,,,,,,,,,,,,,,,,,,,,,104,001,2021_Sep_27_1455,joplin1,2021.2.3,60.127229289998134,
_train_cond.csv,1 0 1 1 1 1 1 1 0 1,2,categoryB,j,,,0,6,6,6,1,13,27,8,,,,,,,,,,,,,,,,,,,j,1,0.49521000031381845,,,,,,,,,,,,,,,,,,,,,,,,,,,,,,,104,001,2021_Sep_27_1455,joplin1,2021.2.3,60.127229289998134,
_train_cond.csv,0 1 1 1 1 1 1 1 1 0,2,categoryB,j,,,0,6,6,6,2,0,28,7,,,,,,,,,,,,,,,,,,,f,0,0.2588749579153955,,,,,,,,,,,,,,,,,,,,,,,,,,,,,,,104,001,2021_Sep_27_1455,joplin1,2021.2.3,60.127229289998134,
_train_cond.csv,1 0 1 1 1 1 1 1 0 1,2,categoryB,j,,,0,6,6,6,2,1,29,8,,,,,,,,,,,,,,,,,,,j,1,1.7913632499985397,,,,,,,,,,,,,,,,,,,,,,,,,,,,,,,104,001,2021_Sep_27_1455,joplin1,2021.2.3,60.127229289998134,
_train_cond.csv,0 0 0 1 1 1 1 0 0 0,6,categoryA,f,,,0,6,6,6,2,2,30,3,,,,,,,,,,,,,,,,,,,f,1,0.3260103343054652,,,,,,,,,,,,,,,,,,,,,,,,,,,,,,,104,001,2021_Sep_27_1455,joplin1,2021.2.3,60.127229289998134,
_train_cond.csv,0 1 0 0 0 0 0 0 1 0,8,categoryA,f,,,0,6,6,6,2,3,31,1,,,,,,,,,,,,,,,,,,,f,1,1.2064730832353234,,,,,,,,,,,,,,,,,,,,,,,,,,,,,,,104,001,2021_Sep_27_1455,joplin1,2021.2.3,60.127229289998134,
_train_cond.csv,1 1 1 0 0 0 0 1 1 1,4,categoryB,j,,,0,6,6,6,2,4,32,10,,,,,,,,,,,,,,,,,,,j,1,0.8938962919637561,,,,,,,,,,,,,,,,,,,,,,,,,,,,,,,104,001,2021_Sep_27_1455,joplin1,2021.2.3,60.127229289998134,
_train_cond.csv,1 1 0 0 0 0 0 0 1 1,6,categoryA,f,,,0,6,6,6,2,5,33,6,,,,,,,,,,,,,,,,,,,f,1,0.8085750001482666,,,,,,,,,,,,,,,,,,,,,,,,,,,,,,,104,001,2021_Sep_27_1455,joplin1,2021.2.3,60.127229289998134,
_train_cond.csv,0 0 1 0 1 1 0 1 0 0,6,categoryA,f,,,0,6,6,6,2,6,34,2,,,,,,,,,,,,,,,,,,,j,0,0.43862462462857366,,,,,,,,,,,,,,,,,,,,,,,,,,,,,,,104,001,2021_Sep_27_1455,joplin1,2021.2.3,60.127229289998134,
_train_cond.csv,0 0 1 0 0 0 0 1 0 0,8,categoryA,f,,,0,6,6,6,2,7,35,5,,,,,,,,,,,,,,,,,,,f,1,0.14718125015497208,,,,,,,,,,,,,,,,,,,,,,,,,,,,,,,104,001,2021_Sep_27_1455,joplin1,2021.2.3,60.127229289998134,
_train_cond.csv,1 1 0 1 1 1 1 0 1 1,2,categoryB,j,,,0,6,6,6,2,8,36,12,,,,,,,,,,,,,,,,,,,j,1,0.44371170829981565,,,,,,,,,,,,,,,,,,,,,,,,,,,,,,,104,001,2021_Sep_27_1455,joplin1,2021.2.3,60.127229289998134,
_train_cond.csv,0 0 1 1 1 1 1 1 0 0,4,categoryB,j,,,0,6,6,6,2,9,37,13,,,,,,,,,,,,,,,,,,,f,0,0.4806371247395873,,,,,,,,,,,,,,,,,,,,,,,,,,,,,,,104,001,2021_Sep_27_1455,joplin1,2021.2.3,60.127229289998134,
_train_cond.csv,1 0 0 0 0 0 0 0 0 1,8,categoryA,f,,,0,6,6,6,2,10,38,0,,,,,,,,,,,,,,,,,,,j,0,0.9079838749021292,,,,,,,,,,,,,,,,,,,,,,,,,,,,,,,104,001,2021_Sep_27_1455,joplin1,2021.2.3,60.127229289998134,
_train_cond.csv,1 1 0 1 0 0 1 0 1 1,4,categoryB,j,,,0,6,6,6,2,11,39,9,,,,,,,,,,,,,,,,,,,f,0,0.2620417498983443,,,,,,,,,,,,,,,,,,,,,,,,,,,,,,,104,001,2021_Sep_27_1455,joplin1,2021.2.3,60.127229289998134,
_train_cond.csv,1 1 1 0 1 1 0 1 1 1,2,categoryB,j,,,0,6,6,6,2,12,40,11,,,,,,,,,,,,,,,,,,,f,0,0.5700299590826035,,,,,,,,,,,,,,,,,,,,,,,,,,,,,,,104,001,2021_Sep_27_1455,joplin1,2021.2.3,60.127229289998134,
_train_cond.csv,0 0 0 1 0 0 1 0 0 0,8,categoryA,f,,,0,6,6,6,2,13,41,4,,,,,,,,,,,,,,,,,,,f,1,0.08194637484848499,,,,,,,,,,,,,,,,,,,,,,,,,,,,,,,104,001,2021_Sep_27_1455,joplin1,2021.2.3,60.127229289998134,
_train_cond.csv,,,,,,,0,6,6,6,,,,,,,,,,,,,,,,,,,,,,,,,,space,1.6844765418209136,,,,,,,,,,,,,,,,,,,,,,,,,,,,,104,001,2021_Sep_27_1455,joplin1,2021.2.3,60.127229289998134,
_train_cond.csv,0 0 1 0 1 1 0 1 0 0,6,categoryA,f,,,0,7,7,4,0,0,0,2,,,,,,,,,,,,,,,,,,,f,1,0.19823445798829198,,,,,,,,,,,,,,,,,,,,,,,,,,,,,,,104,001,2021_Sep_27_1455,joplin1,2021.2.3,60.127229289998134,
_train_cond.csv,1 1 0 1 1 1 1 0 1 1,2,categoryB,j,,,0,7,7,4,0,1,1,12,,,,,,,,,,,,,,,,,,,j,1,0.04723216686397791,,,,,,,,,,,,,,,,,,,,,,,,,,,,,,,104,001,2021_Sep_27_1455,joplin1,2021.2.3,60.127229289998134,
_train_cond.csv,1 0 0 0 0 0 0 0 0 1,8,categoryA,f,,,0,7,7,4,0,2,2,0,,,,,,,,,,,,,,,,,,,j,0,0.31579712498933077,,,,,,,,,,,,,,,,,,,,,,,,,,,,,,,104,001,2021_Sep_27_1455,joplin1,2021.2.3,60.127229289998134,
_train_cond.csv,1 1 0 0 0 0 0 0 1 1,6,categoryA,f,,,0,7,7,4,0,3,3,6,,,,,,,,,,,,,,,,,,,f,1,0.2143127922900021,,,,,,,,,,,,,,,,,,,,,,,,,,,,,,,104,001,2021_Sep_27_1455,joplin1,2021.2.3,60.127229289998134,
_train_cond.csv,1 1 1 0 1 1 0 1 1 1,2,categoryB,j,,,0,7,7,4,0,4,4,11,,,,,,,,,,,,,,,,,,,f,0,0.20376645913347602,,,,,,,,,,,,,,,,,,,,,,,,,,,,,,,104,001,2021_Sep_27_1455,joplin1,2021.2.3,60.127229289998134,
_train_cond.csv,0 1 1 1 1 1 1 1 1 0,2,categoryB,j,,,0,7,7,4,0,5,5,7,,,,,,,,,,,,,,,,,,,f,0,0.1781791658140719,,,,,,,,,,,,,,,,,,,,,,,,,,,,,,,104,001,2021_Sep_27_1455,joplin1,2021.2.3,60.127229289998134,
_train_cond.csv,1 1 1 0 0 0 0 1 1 1,4,categoryB,j,,,0,7,7,4,0,6,6,10,,,,,,,,,,,,,,,,,,,f,0,0.3386736665852368,,,,,,,,,,,,,,,,,,,,,,,,,,,,,,,104,001,2021_Sep_27_1455,joplin1,2021.2.3,60.127229289998134,
_train_cond.csv,0 0 1 1 1 1 1 1 0 0,4,categoryB,j,,,0,7,7,4,0,7,7,13,,,,,,,,,,,,,,,,,,,j,1,0.5878285001963377,,,,,,,,,,,,,,,,,,,,,,,,,,,,,,,104,001,2021_Sep_27_1455,joplin1,2021.2.3,60.127229289998134,
_train_cond.csv,1 1 0 1 0 0 1 0 1 1,4,categoryB,j,,,0,7,7,4,0,8,8,9,,,,,,,,,,,,,,,,,,,f,0,2.1540605002082884,,,,,,,,,,,,,,,,,,,,,,,,,,,,,,,104,001,2021_Sep_27_1455,joplin1,2021.2.3,60.127229289998134,
_train_cond.csv,0 0 1 0 0 0 0 1 0 0,8,categoryA,f,,,0,7,7,4,0,9,9,5,,,,,,,,,,,,,,,,,,,f,1,0.3777241660282016,,,,,,,,,,,,,,,,,,,,,,,,,,,,,,,104,001,2021_Sep_27_1455,joplin1,2021.2.3,60.127229289998134,
_train_cond.csv,0 0 0 1 1 1 1 0 0 0,6,categoryA,f,,,0,7,7,4,0,10,10,3,,,,,,,,,,,,,,,,,,,j,0,0.026283459272235632,,,,,,,,,,,,,,,,,,,,,,,,,,,,,,,104,001,2021_Sep_27_1455,joplin1,2021.2.3,60.127229289998134,
_train_cond.csv,0 0 0 1 0 0 1 0 0 0,8,categoryA,f,,,0,7,7,4,0,11,11,4,,,,,,,,,,,,,,,,,,,f,1,0.44681183295324445,,,,,,,,,,,,,,,,,,,,,,,,,,,,,,,104,001,2021_Sep_27_1455,joplin1,2021.2.3,60.127229289998134,
_train_cond.csv,1 0 1 1 1 1 1 1 0 1,2,categoryB,j,,,0,7,7,4,0,12,12,8,,,,,,,,,,,,,,,,,,,f,0,2.6919127497822046,,,,,,,,,,,,,,,,,,,,,,,,,,,,,,,104,001,2021_Sep_27_1455,joplin1,2021.2.3,60.127229289998134,
_train_cond.csv,0 1 0 0 0 0 0 0 1 0,8,categoryA,f,,,0,7,7,4,0,13,13,1,,,,,,,,,,,,,,,,,,,f,1,1.6385622499510646,,,,,,,,,,,,,,,,,,,,,,,,,,,,,,,104,001,2021_Sep_27_1455,joplin1,2021.2.3,60.127229289998134,
_train_cond.csv,1 0 1 1 1 1 1 1 0 1,2,categoryB,j,,,0,7,7,4,1,0,14,8,,,,,,,,,,,,,,,,,,,f,0,0.7873761248774827,,,,,,,,,,,,,,,,,,,,,,,,,,,,,,,104,001,2021_Sep_27_1455,joplin1,2021.2.3,60.127229289998134,
_train_cond.csv,0 0 0 1 1 1 1 0 0 0,6,categoryA,f,,,0,7,7,4,1,1,15,3,,,,,,,,,,,,,,,,,,,j,0,0.7545114159584045,,,,,,,,,,,,,,,,,,,,,,,,,,,,,,,104,001,2021_Sep_27_1455,joplin1,2021.2.3,60.127229289998134,
_train_cond.csv,0 0 1 0 0 0 0 1 0 0,8,categoryA,f,,,0,7,7,4,1,2,16,5,,,,,,,,,,,,,,,,,,,j,0,0.7372139575891197,,,,,,,,,,,,,,,,,,,,,,,,,,,,,,,104,001,2021_Sep_27_1455,joplin1,2021.2.3,60.127229289998134,
_train_cond.csv,1 0 0 0 0 0 0 0 0 1,8,categoryA,f,,,0,7,7,4,1,3,17,0,,,,,,,,,,,,,,,,,,,j,0,0.2751862918958068,,,,,,,,,,,,,,,,,,,,,,,,,,,,,,,104,001,2021_Sep_27_1455,joplin1,2021.2.3,60.127229289998134,
_train_cond.csv,0 0 0 1 0 0 1 0 0 0,8,categoryA,f,,,0,7,7,4,1,4,18,4,,,,,,,,,,,,,,,,,,,f,1,0.3746731667779386,,,,,,,,,,,,,,,,,,,,,,,,,,,,,,,104,001,2021_Sep_27_1455,joplin1,2021.2.3,60.127229289998134,
_train_cond.csv,0 1 1 1 1 1 1 1 1 0,2,categoryB,j,,,0,7,7,4,1,5,19,7,,,,,,,,,,,,,,,,,,,f,0,0.966900875326246,,,,,,,,,,,,,,,,,,,,,,,,,,,,,,,104,001,2021_Sep_27_1455,joplin1,2021.2.3,60.127229289998134,
_train_cond.csv,1 1 0 0 0 0 0 0 1 1,6,categoryA,f,,,0,7,7,4,1,6,20,6,,,,,,,,,,,,,,,,,,,j,0,0.42319237533956766,,,,,,,,,,,,,,,,,,,,,,,,,,,,,,,104,001,2021_Sep_27_1455,joplin1,2021.2.3,60.127229289998134,
_train_cond.csv,0 1 0 0 0 0 0 0 1 0,8,categoryA,f,,,0,7,7,4,1,7,21,1,,,,,,,,,,,,,,,,,,,f,1,0.03673754073679447,,,,,,,,,,,,,,,,,,,,,,,,,,,,,,,104,001,2021_Sep_27_1455,joplin1,2021.2.3,60.127229289998134,
_train_cond.csv,1 1 0 1 1 1 1 0 1 1,2,categoryB,j,,,0,7,7,4,1,8,22,12,,,,,,,,,,,,,,,,,,,j,1,0.32944995909929276,,,,,,,,,,,,,,,,,,,,,,,,,,,,,,,104,001,2021_Sep_27_1455,joplin1,2021.2.3,60.127229289998134,
_train_cond.csv,0 0 1 1 1 1 1 1 0 0,4,categoryB,j,,,0,7,7,4,1,9,23,13,,,,,,,,,,,,,,,,,,,j,1,0.01050529070198536,,,,,,,,,,,,,,,,,,,,,,,,,,,,,,,104,001,2021_Sep_27_1455,joplin1,2021.2.3,60.127229289998134,
_train_cond.csv,1 1 0 1 0 0 1 0 1 1,4,categoryB,j,,,0,7,7,4,1,10,24,9,,,,,,,,,,,,,,,,,,,f,0,0.18535404093563557,,,,,,,,,,,,,,,,,,,,,,,,,,,,,,,104,001,2021_Sep_27_1455,joplin1,2021.2.3,60.127229289998134,
_train_cond.csv,0 0 1 0 1 1 0 1 0 0,6,categoryA,f,,,0,7,7,4,1,11,25,2,,,,,,,,,,,,,,,,,,,j,0,0.4407480410300195,,,,,,,,,,,,,,,,,,,,,,,,,,,,,,,104,001,2021_Sep_27_1455,joplin1,2021.2.3,60.127229289998134,
_train_cond.csv,1 1 1 0 1 1 0 1 1 1,2,categoryB,j,,,0,7,7,4,1,12,26,11,,,,,,,,,,,,,,,,,,,f,0,0.0860675829462707,,,,,,,,,,,,,,,,,,,,,,,,,,,,,,,104,001,2021_Sep_27_1455,joplin1,2021.2.3,60.127229289998134,
_train_cond.csv,1 1 1 0 0 0 0 1 1 1,4,categoryB,j,,,0,7,7,4,1,13,27,10,,,,,,,,,,,,,,,,,,,f,0,0.6326106251217425,,,,,,,,,,,,,,,,,,,,,,,,,,,,,,,104,001,2021_Sep_27_1455,joplin1,2021.2.3,60.127229289998134,
_train_cond.csv,1 1 0 1 0 0 1 0 1 1,4,categoryB,j,,,0,7,7,4,2,0,28,9,,,,,,,,,,,,,,,,,,,j,1,0.878499791957438,,,,,,,,,,,,,,,,,,,,,,,,,,,,,,,104,001,2021_Sep_27_1455,joplin1,2021.2.3,60.127229289998134,
_train_cond.csv,0 1 1 1 1 1 1 1 1 0,2,categoryB,j,,,0,7,7,4,2,1,29,7,,,,,,,,,,,,,,,,,,,j,1,0.38624812522903085,,,,,,,,,,,,,,,,,,,,,,,,,,,,,,,104,001,2021_Sep_27_1455,joplin1,2021.2.3,60.127229289998134,
_train_cond.csv,0 0 1 0 0 0 0 1 0 0,8,categoryA,f,,,0,7,7,4,2,2,30,5,,,,,,,,,,,,,,,,,,,f,1,0.8570686252787709,,,,,,,,,,,,,,,,,,,,,,,,,,,,,,,104,001,2021_Sep_27_1455,joplin1,2021.2.3,60.127229289998134,
_train_cond.csv,0 0 0 1 1 1 1 0 0 0,6,categoryA,f,,,0,7,7,4,2,3,31,3,,,,,,,,,,,,,,,,,,,f,1,0.5093554588966072,,,,,,,,,,,,,,,,,,,,,,,,,,,,,,,104,001,2021_Sep_27_1455,joplin1,2021.2.3,60.127229289998134,
_train_cond.csv,0 1 0 0 0 0 0 0 1 0,8,categoryA,f,,,0,7,7,4,2,4,32,1,,,,,,,,,,,,,,,,,,,f,1,0.5760923749767244,,,,,,,,,,,,,,,,,,,,,,,,,,,,,,,104,001,2021_Sep_27_1455,joplin1,2021.2.3,60.127229289998134,
_train_cond.csv,1 1 0 0 0 0 0 0 1 1,6,categoryA,f,,,0,7,7,4,2,5,33,6,,,,,,,,,,,,,,,,,,,f,1,0.679747249931097,,,,,,,,,,,,,,,,,,,,,,,,,,,,,,,104,001,2021_Sep_27_1455,joplin1,2021.2.3,60.127229289998134,
_train_cond.csv,0 0 1 0 1 1 0 1 0 0,6,categoryA,f,,,0,7,7,4,2,6,34,2,,,,,,,,,,,,,,,,,,,f,1,0.3716964591294527,,,,,,,,,,,,,,,,,,,,,,,,,,,,,,,104,001,2021_Sep_27_1455,joplin1,2021.2.3,60.127229289998134,
_train_cond.csv,1 1 0 1 1 1 1 0 1 1,2,categoryB,j,,,0,7,7,4,2,7,35,12,,,,,,,,,,,,,,,,,,,f,0,0.8201657077297568,,,,,,,,,,,,,,,,,,,,,,,,,,,,,,,104,001,2021_Sep_27_1455,joplin1,2021.2.3,60.127229289998134,
_train_cond.csv,1 1 1 0 0 0 0 1 1 1,4,categoryB,j,,,0,7,7,4,2,8,36,10,,,,,,,,,,,,,,,,,,,f,0,0.3208249998278916,,,,,,,,,,,,,,,,,,,,,,,,,,,,,,,104,001,2021_Sep_27_1455,joplin1,2021.2.3,60.127229289998134,
_train_cond.csv,0 0 0 1 0 0 1 0 0 0,8,categoryA,f,,,0,7,7,4,2,9,37,4,,,,,,,,,,,,,,,,,,,f,1,0.28329183300957084,,,,,,,,,,,,,,,,,,,,,,,,,,,,,,,104,001,2021_Sep_27_1455,joplin1,2021.2.3,60.127229289998134,
_train_cond.csv,1 1 1 0 1 1 0 1 1 1,2,categoryB,j,,,0,7,7,4,2,10,38,11,,,,,,,,,,,,,,,,,,,j,1,0.2461072918958962,,,,,,,,,,,,,,,,,,,,,,,,,,,,,,,104,001,2021_Sep_27_1455,joplin1,2021.2.3,60.127229289998134,
_train_cond.csv,1 0 0 0 0 0 0 0 0 1,8,categoryA,f,,,0,7,7,4,2,11,39,0,,,,,,,,,,,,,,,,,,,f,1,0.14711904199793935,,,,,,,,,,,,,,,,,,,,,,,,,,,,,,,104,001,2021_Sep_27_1455,joplin1,2021.2.3,60.127229289998134,
_train_cond.csv,1 0 1 1 1 1 1 1 0 1,2,categoryB,j,,,0,7,7,4,2,12,40,8,,,,,,,,,,,,,,,,,,,j,1,0.0677902908064425,,,,,,,,,,,,,,,,,,,,,,,,,,,,,,,104,001,2021_Sep_27_1455,joplin1,2021.2.3,60.127229289998134,
_train_cond.csv,0 0 1 1 1 1 1 1 0 0,4,categoryB,j,,,0,7,7,4,2,13,41,13,,,,,,,,,,,,,,,,,,,j,1,0.12001862470060587,,,,,,,,,,,,,,,,,,,,,,,,,,,,,,,104,001,2021_Sep_27_1455,joplin1,2021.2.3,60.127229289998134,
_train_cond.csv,,,,,,,0,7,7,4,,,,,,,,,,,,,,,,,,,,,,,,,,space,1.3449113750830293,,,,,,,,,,,,,,,,,,,,,,,,,,,,,104,001,2021_Sep_27_1455,joplin1,2021.2.3,60.127229289998134,
,,,,,,,,,,,,,,,,,,,,,,,,,,,,,,,,,,,,,,q,14.819557749666274,,,,,,,,,,,,,,,,,,,,,,,,,,,104,001,2021_Sep_27_1455,joplin1,2021.2.3,60.127229289998134,
,,,,,,,,,,,,,,,,,,,,,,,,,,,,,,,,,,,,,,,,f,7.809963250067085,,,,,,,,,,,,,,,,,,,,,,,,,104,001,2021_Sep_27_1455,joplin1,2021.2.3,60.127229289998134,
,,,,,,,,,,,,,,,,,,,,,,,,,,,,,,,,,,,,,,,,,,space,5.280188958160579,,,,,,,,,,,,,,,,,,,,,,,104,001,2021_Sep_27_1455,joplin1,2021.2.3,60.127229289998134,
,,,,,,,,,,,,,,,,,,,,,,,,,,,,,,,,,,,,,,,,,,,,space,1.0998458750545979,,,,,,,,,,,,,,,,,,,,,104,001,2021_Sep_27_1455,joplin1,2021.2.3,60.127229289998134,
,1 1 1 1 1 1 1 1 1 0,1,categoryB,j,genfile1.csv,0,,,,,,,,,0,0,0,0,0,0,0,53,,,,,,,,,,,,,,,,,,,,,,,,j,1,1.7561197075992823,,,,,,,,,,,,,,,,,,104,001,2021_Sep_27_1455,joplin1,2021.2.3,60.127229289998134,
,1 1 0 1 0 1 1 0 1 1,3,categoryB,j,genfile1.csv,0,,,,,,,,,0,0,0,0,0,1,1,44,,,,,,,,,,,,,,,,,,,,,,,,f,0,0.4901180421002209,,,,,,,,,,,,,,,,,,104,001,2021_Sep_27_1455,joplin1,2021.2.3,60.127229289998134,
,0 0 0 0 0 1 1 0 0 0,8,categoryA,f,genfile1.csv,0,,,,,,,,,0,0,0,0,0,2,2,21,,,,,,,,,,,,,,,,,,,,,,,,f,1,0.39511149981990457,,,,,,,,,,,,,,,,,,104,001,2021_Sep_27_1455,joplin1,2021.2.3,60.127229289998134,
,1 0 1 1 1 1 0 1 1 1,2,categoryB,j,genfile1.csv,0,,,,,,,,,0,0,0,0,0,3,3,50,,,,,,,,,,,,,,,,,,,,,,,,j,1,0.07329316716641188,,,,,,,,,,,,,,,,,,104,001,2021_Sep_27_1455,joplin1,2021.2.3,60.127229289998134,
,1 0 1 1 1 0 0 1 0 1,4,categoryB,j,genfile1.csv,0,,,,,,,,,0,0,0,0,0,4,4,38,,,,,,,,,,,,,,,,,,,,,,,,j,1,0.09159966697916389,,,,,,,,,,,,,,,,,,104,001,2021_Sep_27_1455,joplin1,2021.2.3,60.127229289998134,
,1 0 1 0 1 1 1 1 0 1,3,categoryB,j,genfile1.csv,0,,,,,,,,,0,0,0,0,0,5,5,42,,,,,,,,,,,,,,,,,,,,,,,,j,1,0.8115542912855744,,,,,,,,,,,,,,,,,,104,001,2021_Sep_27_1455,joplin1,2021.2.3,60.127229289998134,
,1 0 0 0 1 0 0 0 0 1,7,categoryA,f,genfile1.csv,0,,,,,,,,,0,0,0,0,0,6,6,27,,,,,,,,,,,,,,,,,,,,,,,,f,1,0.29734212486073375,,,,,,,,,,,,,,,,,,104,001,2021_Sep_27_1455,joplin1,2021.2.3,60.127229289998134,
,1 0 0 1 0 0 1 0 0 1,6,categoryA,f,genfile1.csv,0,,,,,,,,,0,0,0,0,0,7,7,34,,,,,,,,,,,,,,,,,,,,,,,,f,1,0.1392197087407112,,,,,,,,,,,,,,,,,,104,001,2021_Sep_27_1455,joplin1,2021.2.3,60.127229289998134,
,1 0 0 0 0 0 0 0 0 0,9,categoryA,f,genfile1.csv,0,,,,,,,,,0,0,0,0,0,8,8,18,,,,,,,,,,,,,,,,,,,,,,,,j,0,1.4201812921091914,,,,,,,,,,,,,,,,,,104,001,2021_Sep_27_1455,joplin1,2021.2.3,60.127229289998134,
,1 1 1 1 0 1 0 1 1 1,2,categoryB,j,genfile1.csv,0,,,,,,,,,0,0,0,0,0,9,9,46,,,,,,,,,,,,,,,,,,,,,,,,j,1,0.40930883307009935,,,,,,,,,,,,,,,,,,104,001,2021_Sep_27_1455,joplin1,2021.2.3,60.127229289998134,
,0 0 0 0 0 1 0 1 1 1,6,categoryA,f,genfile1.csv,0,,,,,,,,,0,0,0,0,0,10,10,33,,,,,,,,,,,,,,,,,,,,,,,,f,1,0.7754154168069363,,,,,,,,,,,,,,,,,,104,001,2021_Sep_27_1455,joplin1,2021.2.3,60.127229289998134,
,1 1 0 0 0 0 0 0 1 1,6,categoryA,f,genfile1.csv,1,,,,,,,,,0,0,0,0,0,11,11,8,,,,,,,,,,,,,,,,,,,,,,,,j,0,1.3188194590620697,,,,,,,,,,,,,,,,,,104,001,2021_Sep_27_1455,joplin1,2021.2.3,60.127229289998134,
,0 0 1 0 0 0 1 1 0 0,7,categoryA,f,genfile1.csv,0,,,,,,,,,0,0,0,0,0,12,12,26,,,,,,,,,,,,,,,,,,,,,,,,j,0,1.471358582843095,,,,,,,,,,,,,,,,,,104,001,2021_Sep_27_1455,joplin1,2021.2.3,60.127229289998134,
,1 1 0 0 1 1 0 1 1 1,3,categoryB,j,genfile1.csv,0,,,,,,,,,0,0,0,0,0,13,13,41,,,,,,,,,,,,,,,,,,,,,,,,f,0,1.2648260830901563,,,,,,,,,,,,,,,,,,104,001,2021_Sep_27_1455,joplin1,2021.2.3,60.127229289998134,
,0 0 1 0 1 1 0 1 0 0,6,categoryA,f,genfile1.csv,1,,,,,,,,,0,0,0,0,0,14,14,4,,,,,,,,,,,,,,,,,,,,,,,,j,0,0.4780150419101119,,,,,,,,,,,,,,,,,,104,001,2021_Sep_27_1455,joplin1,2021.2.3,60.127229289998134,
,0 0 0 1 1 1 1 0 0 0,6,categoryA,f,genfile1.csv,1,,,,,,,,,0,0,0,0,0,15,15,5,,,,,,,,,,,,,,,,,,,,,,,,f,1,0.36199533427134156,,,,,,,,,,,,,,,,,,104,001,2021_Sep_27_1455,joplin1,2021.2.3,60.127229289998134,
,0 0 1 0 0 0 0 1 0 0,8,categoryA,f,genfile1.csv,1,,,,,,,,,0,0,0,0,0,16,16,7,,,,,,,,,,,,,,,,,,,,,,,,j,0,0.6028340826742351,,,,,,,,,,,,,,,,,,104,001,2021_Sep_27_1455,joplin1,2021.2.3,60.127229289998134,
,0 1 1 1 1 1 1 0 1 1,2,categoryB,j,genfile1.csv,0,,,,,,,,,0,0,0,0,0,17,17,47,,,,,,,,,,,,,,,,,,,,,,,,j,1,0.928192166145891,,,,,,,,,,,,,,,,,,104,001,2021_Sep_27_1455,joplin1,2021.2.3,60.127229289998134,
,0 1 1 1 0 0 1 0 1 1,4,categoryB,j,genfile1.csv,0,,,,,,,,,0,0,0,0,0,18,18,36,,,,,,,,,,,,,,,,,,,,,,,,j,1,0.46506858337670565,,,,,,,,,,,,,,,,,,104,001,2021_Sep_27_1455,joplin1,2021.2.3,60.127229289998134,
,0 0 0 0 0 0 1 0 0 0,9,categoryA,f,genfile1.csv,0,,,,,,,,,0,0,0,0,0,19,19,17,,,,,,,,,,,,,,,,,,,,,,,,f,1,0.6438442501239479,,,,,,,,,,,,,,,,,,104,001,2021_Sep_27_1455,joplin1,2021.2.3,60.127229289998134,
,0 0 0 1 0 0 0 0 1 0,8,categoryA,f,genfile1.csv,0,,,,,,,,,0,0,0,0,0,20,20,24,,,,,,,,,,,,,,,,,,,,,,,,f,1,0.8554067080840468,,,,,,,,,,,,,,,,,,104,001,2021_Sep_27_1455,joplin1,2021.2.3,60.127229289998134,
,1 1 0 1 1 1 1 1 1 1,1,categoryB,j,genfile1.csv,0,,,,,,,,,0,0,0,0,0,21,21,51,,,,,,,,,,,,,,,,,,,,,,,,f,0,1.259545958135277,,,,,,,,,,,,,,,,,,104,001,2021_Sep_27_1455,joplin1,2021.2.3,60.127229289998134,
,1 0 0 0 0 1 0 0 0 0,8,categoryA,f,genfile1.csv,0,,,,,,,,,0,0,0,0,0,22,22,25,,,,,,,,,,,,,,,,,,,,,,,,j,0,1.1891513331793249,,,,,,,,,,,,,,,,,,104,001,2021_Sep_27_1455,joplin1,2021.2.3,60.127229289998134,
,1 1 1 1 1 1 1 0 1 1,1,categoryB,j,genfile1.csv,0,,,,,,,,,0,0,0,0,0,23,23,52,,,,,,,,,,,,,,,,,,,,,,,,j,1,0.8847578749991953,,,,,,,,,,,,,,,,,,104,001,2021_Sep_27_1455,joplin1,2021.2.3,60.127229289998134,
,0 1 0 0 0 1 1 1 1 1,4,categoryB,j,genfile1.csv,0,,,,,,,,,0,0,0,0,0,24,24,39,,,,,,,,,,,,,,,,,,,,,,,,f,0,1.0214069592766464,,,,,,,,,,,,,,,,,,104,001,2021_Sep_27_1455,joplin1,2021.2.3,60.127229289998134,
,0 1 0 0 0 0 0 1 0 0,8,categoryA,f,genfile1.csv,0,,,,,,,,,0,0,0,0,0,25,25,23,,,,,,,,,,,,,,,,,,,,,,,,j,0,1.179155749734491,,,,,,,,,,,,,,,,,,104,001,2021_Sep_27_1455,joplin1,2021.2.3,60.127229289998134,
,1 0 0 0 1 0 1 1 1 1,4,categoryB,j,genfile1.csv,0,,,,,,,,,0,0,0,0,0,26,26,37,,,,,,,,,,,,,,,,,,,,,,,,None,0,,,,,,,,,,,,,,,,,,,104,001,2021_Sep_27_1455,joplin1,2021.2.3,60.127229289998134,
,0 1 1 1 1 1 1 1 1 1,1,categoryB,j,genfile1.csv,0,,,,,,,,,0,0,0,0,0,27,27,55,,,,,,,,,,,,,,,,,,,,,,,,j,1,0.04780812514945865,,,,,,,,,,,,,,,,,,104,001,2021_Sep_27_1455,joplin1,2021.2.3,60.127229289998134,
,1 1 1 1 1 1 1 1 1 1,0,categoryB,j,genfile1.csv,0,,,,,,,,,0,0,0,0,0,28,28,1,,,,,,,,,,,,,,,,,,,,,,,,j,1,0.7647722908295691,,,,,,,,,,,,,,,,,,104,001,2021_Sep_27_1455,joplin1,2021.2.3,60.127229289998134,
,0 0 0 0 1 0 0 0 0 0,9,categoryA,f,genfile1.csv,0,,,,,,,,,0,0,0,0,0,29,29,19,,,,,,,,,,,,,,,,,,,,,,,,f,1,0.6685405420139432,,,,,,,,,,,,,,,,,,104,001,2021_Sep_27_1455,joplin1,2021.2.3,60.127229289998134,
,1 1 0 1 0 1 1 1 0 1,3,categoryB,j,genfile1.csv,0,,,,,,,,,0,0,0,0,0,30,30,45,,,,,,,,,,,,,,,,,,,,,,,,f,0,0.4474417921155691,,,,,,,,,,,,,,,,,,104,001,2021_Sep_27_1455,joplin1,2021.2.3,60.127229289998134,
,0 0 1 1 1 1 1 1 0 0,4,categoryB,j,genfile1.csv,1,,,,,,,,,0,0,0,0,0,31,31,15,,,,,,,,,,,,,,,,,,,,,,,,j,1,0.5413355408236384,,,,,,,,,,,,,,,,,,104,001,2021_Sep_27_1455,joplin1,2021.2.3,60.127229289998134,
,0 0 0 1 0 0 1 1 0 1,6,categoryA,f,genfile1.csv,0,,,,,,,,,0,0,0,0,0,32,32,31,,,,,,,,,,,,,,,,,,,,,,,,f,1,0.3053008341230452,,,,,,,,,,,,,,,,,,104,001,2021_Sep_27_1455,joplin1,2021.2.3,60.127229289998134,
,0 0 0 0 0 0 0 0 0 1,9,categoryA,f,genfile1.csv,0,,,,,,,,,0,0,0,0,0,33,33,16,,,,,,,,,,,,,,,,,,,,,,,,f,1,0.3792607090435922,,,,,,,,,,,,,,,,,,104,001,2021_Sep_27_1455,joplin1,2021.2.3,60.127229289998134,
,0 0 0 0 0 1 0 0 0 0,9,categoryA,f,genfile1.csv,0,,,,,,,,,0,0,0,0,0,34,34,20,,,,,,,,,,,,,,,,,,,,,,,,f,1,1.059050666168332,,,,,,,,,,,,,,,,,,104,001,2021_Sep_27_1455,joplin1,2021.2.3,60.127229289998134,
,0 1 0 0 0 0 0 0 1 0,8,categoryA,f,genfile1.csv,1,,,,,,,,,0,0,0,0,0,35,35,3,,,,,,,,,,,,,,,,,,,,,,,,f,1,1.528207582887262,,,,,,,,,,,,,,,,,,104,001,2021_Sep_27_1455,joplin1,2021.2.3,60.127229289998134,
,0 1 1 1 0 1 0 1 1 1,3,categoryB,j,genfile1.csv,0,,,,,,,,,0,0,0,0,0,36,36,43,,,,,,,,,,,,,,,,,,,,,,,,j,1,0.39339716685935855,,,,,,,,,,,,,,,,,,104,001,2021_Sep_27_1455,joplin1,2021.2.3,60.127229289998134,
,1 1 1 0 1 1 0 1 1 1,2,categoryB,j,genfile1.csv,1,,,,,,,,,0,0,0,0,0,37,37,13,,,,,,,,,,,,,,,,,,,,,,,,j,1,0.3126873751170933,,,,,,,,,,,,,,,,,,104,001,2021_Sep_27_1455,joplin1,2021.2.3,60.127229289998134,
,1 0 0 0 0 0 0 0 0 1,8,categoryA,f,genfile1.csv,1,,,,,,,,,0,0,0,0,0,38,38,2,,,,,,,,,,,,,,,,,,,,,,,,j,0,1.0596871669404209,,,,,,,,,,,,,,,,,,104,001,2021_Sep_27_1455,joplin1,2021.2.3,60.127229289998134,
,0 0 1 0 1 0 1 0 0 0,7,categoryA,f,genfile1.csv,0,,,,,,,,,0,0,0,0,0,39,39,28,,,,,,,,,,,,,,,,,,,,,,,,j,0,0.8824702501296997,,,,,,,,,,,,,,,,,,104,001,2021_Sep_27_1455,joplin1,2021.2.3,60.127229289998134,
,0 1 1 1 0 0 1 0 0 0,6,categoryA,f,genfile1.csv,0,,,,,,,,,0,0,0,0,0,40,40,35,,,,,,,,,,,,,,,,,,,,,,,,j,0,0.43809075001627207,,,,,,,,,,,,,,,,,,104,001,2021_Sep_27_1455,joplin1,2021.2.3,60.127229289998134,
,1 1 1 0 0 0 0 1 1 1,4,categoryB,j,genfile1.csv,1,,,,,,,,,0,0,0,0,0,41,41,12,,,,,,,,,,,,,,,,,,,,,,,,j,1,1.0594721250236034,,,,,,,,,,,,,,,,,,104,001,2021_Sep_27_1455,joplin1,2021.2.3,60.127229289998134,
,0 1 1 1 1 1 1 1 1 0,2,categoryB,j,genfile1.csv,1,,,,,,,,,0,0,0,0,0,42,42,9,,,,,,,,,,,,,,,,,,,,,,,,j,1,0.5675790421664715,,,,,,,,,,,,,,,,,,104,001,2021_Sep_27_1455,joplin1,2021.2.3,60.127229289998134,
,0 0 0 0 0 0 0 0 0 0,10,categoryA,f,genfile1.csv,0,,,,,,,,,0,0,0,0,0,43,43,0,,,,,,,,,,,,,,,,,,,,,,,,f,1,0.5667012906633317,,,,,,,,,,,,,,,,,,104,001,2021_Sep_27_1455,joplin1,2021.2.3,60.127229289998134,
,1 0 1 1 1 1 1 1 1 1,1,categoryB,j,genfile1.csv,0,,,,,,,,,0,0,0,0,0,44,44,54,,,,,,,,,,,,,,,,,,,,,,,,j,1,0.6393278334289789,,,,,,,,,,,,,,,,,,104,001,2021_Sep_27_1455,joplin1,2021.2.3,60.127229289998134,
,0 0 0 1 0 0 1 0 0 0,8,categoryA,f,genfile1.csv,1,,,,,,,,,0,0,0,0,0,45,45,6,,,,,,,,,,,,,,,,,,,,,,,,f,1,0.3733854591846466,,,,,,,,,,,,,,,,,,104,001,2021_Sep_27_1455,joplin1,2021.2.3,60.127229289998134,
,1 0 1 1 1 1 1 1 0 1,2,categoryB,j,genfile1.csv,1,,,,,,,,,0,0,0,0,0,46,46,10,,,,,,,,,,,,,,,,,,,,,,,,j,1,0.37200633389875293,,,,,,,,,,,,,,,,,,104,001,2021_Sep_27_1455,joplin1,2021.2.3,60.127229289998134,
,0 1 1 0 1 1 1 1 1 1,2,categoryB,j,genfile1.csv,0,,,,,,,,,0,0,0,0,0,47,47,48,,,,,,,,,,,,,,,,,,,,,,,,j,1,0.33201191714033484,,,,,,,,,,,,,,,,,,104,001,2021_Sep_27_1455,joplin1,2021.2.3,60.127229289998134,
,1 1 0 1 0 0 1 0 1 1,4,categoryB,j,genfile1.csv,1,,,,,,,,,0,0,0,0,0,48,48,11,,,,,,,,,,,,,,,,,,,,,,,,f,0,0.4135104171000421,,,,,,,,,,,,,,,,,,104,001,2021_Sep_27_1455,joplin1,2021.2.3,60.127229289998134,
,1 1 0 1 0 1 1 1 1 1,2,categoryB,j,genfile1.csv,0,,,,,,,,,0,0,0,0,0,49,49,49,,,,,,,,,,,,,,,,,,,,,,,,f,0,0.4433450000360608,,,,,,,,,,,,,,,,,,104,001,2021_Sep_27_1455,joplin1,2021.2.3,60.127229289998134,
,0 0 0 1 1 1 0 0 1 0,6,categoryA,f,genfile1.csv,0,,,,,,,,,0,0,0,0,0,50,50,32,,,,,,,,,,,,,,,,,,,,,,,,f,1,0.628436875063926,,,,,,,,,,,,,,,,,,104,001,2021_Sep_27_1455,joplin1,2021.2.3,60.127229289998134,
,0 0 1 1 0 0 0 0 0 1,7,categoryA,f,genfile1.csv,0,,,,,,,,,0,0,0,0,0,51,51,30,,,,,,,,,,,,,,,,,,,,,,,,j,0,0.32865254068747163,,,,,,,,,,,,,,,,,,104,001,2021_Sep_27_1455,joplin1,2021.2.3,60.127229289998134,
,1 1 0 1 1 1 1 0 1 1,2,categoryB,j,genfile1.csv,1,,,,,,,,,0,0,0,0,0,52,52,14,,,,,,,,,,,,,,,,,,,,,,,,j,1,1.290358082856983,,,,,,,,,,,,,,,,,,104,001,2021_Sep_27_1455,joplin1,2021.2.3,60.127229289998134,
,0 0 1 0 0 1 1 0 0 0,7,categoryA,f,genfile1.csv,0,,,,,,,,,0,0,0,0,0,53,53,29,,,,,,,,,,,,,,,,,,,,,,,,j,0,0.35535775031894445,,,,,,,,,,,,,,,,,,104,001,2021_Sep_27_1455,joplin1,2021.2.3,60.127229289998134,
,1 1 0 0 1 1 0 1 1 0,4,categoryB,j,genfile1.csv,0,,,,,,,,,0,0,0,0,0,54,54,40,,,,,,,,,,,,,,,,,,,,,,,,j,1,0.4953512498177588,,,,,,,,,,,,,,,,,,104,001,2021_Sep_27_1455,joplin1,2021.2.3,60.127229289998134,
,0 0 0 1 1 0 0 0 0 0,8,categoryA,f,genfile1.csv,0,,,,,,,,,0,0,0,0,0,55,55,22,,,,,,,,,,,,,,,,,,,,,,,,f,1,0.8023761669173837,,,,,,,,,,,,,,,,,,104,001,2021_Sep_27_1455,joplin1,2021.2.3,60.127229289998134,
,,,,,genfile1.csv,,,,,,,,,,0,0,0,0,,,,,,,,,,,,,,,,,,space,2.6799477920867503,,,,,,,,,,,,,,,,,,,,,,,,,,,,,104,001,2021_Sep_27_1455,joplin1,2021.2.3,60.127229289998134,
,0 0 0 0 0 0 0 1 0 1,8,categoryA,f,genfile2.csv,0,,,,,,,,,0,1,1,1,0,0,0,25,,,,,,,,,,,,,,,,,,,,,,,,f,1,1.2210321659222245,,,,,,,,,,,,,,,,,,104,001,2021_Sep_27_1455,joplin1,2021.2.3,60.127229289998134,
,0 1 0 0 0 0 0 0 1 0,8,categoryA,f,genfile2.csv,1,,,,,,,,,0,1,1,1,0,1,1,3,,,,,,,,,,,,,,,,,,,,,,,,f,1,0.31534341676160693,,,,,,,,,,,,,,,,,,104,001,2021_Sep_27_1455,joplin1,2021.2.3,60.127229289998134,
,0 0 0 0 0 0 0 1 1 1,7,categoryA,f,genfile2.csv,0,,,,,,,,,0,1,1,1,0,2,2,30,,,,,,,,,,,,,,,,,,,,,,,,f,1,0.3975831251591444,,,,,,,,,,,,,,,,,,104,001,2021_Sep_27_1455,joplin1,2021.2.3,60.127229289998134,
,0 0 0 1 0 1 0 0 0 0,8,categoryA,f,genfile2.csv,0,,,,,,,,,0,1,1,1,0,3,3,24,,,,,,,,,,,,,,,,,,,,,,,,f,1,0.6195039576850832,,,,,,,,,,,,,,,,,,104,001,2021_Sep_27_1455,joplin1,2021.2.3,60.127229289998134,
,1 0 1 0 1 0 1 0 0 0,6,categoryA,f,genfile2.csv,0,,,,,,,,,0,1,1,1,0,4,4,34,,,,,,,,,,,,,,,,,,,,,,,,j,0,0.33440920803695917,,,,,,,,,,,,,,,,,,104,001,2021_Sep_27_1455,joplin1,2021.2.3,60.127229289998134,
,0 0 1 0 0 0 0 1 0 0,8,categoryA,f,genfile2.csv,1,,,,,,,,,0,1,1,1,0,5,5,7,,,,,,,,,,,,,,,,,,,,,,,,j,0,0.32837037509307265,,,,,,,,,,,,,,,,,,104,001,2021_Sep_27_1455,joplin1,2021.2.3,60.127229289998134,
,1 1 1 1 1 1 1 0 1 0,2,categoryB,j,genfile2.csv,0,,,,,,,,,0,1,1,1,0,6,6,48,,,,,,,,,,,,,,,,,,,,,,,,j,1,0.7124188328161836,,,,,,,,,,,,,,,,,,104,001,2021_Sep_27_1455,joplin1,2021.2.3,60.127229289998134,
,1 1 1 1 1 1 1 1 1 1,0,categoryB,j,genfile2.csv,0,,,,,,,,,0,1,1,1,0,7,7,1,,,,,,,,,,,,,,,,,,,,,,,,j,1,1.1400107080116868,,,,,,,,,,,,,,,,,,104,001,2021_Sep_27_1455,joplin1,2021.2.3,60.127229289998134,
,1 1 1 1 0 1 1 1 1 1,1,categoryB,j,genfile2.csv,0,,,,,,,,,0,1,1,1,0,8,8,51,,,,,,,,,,,,,,,,,,,,,,,,j,1,0.37133620772510767,,,,,,,,,,,,,,,,,,104,001,2021_Sep_27_1455,joplin1,2021.2.3,60.127229289998134,
,1 1 0 1 1 0 1 1 1 1,2,categoryB,j,genfile2.csv,0,,,,,,,,,0,1,1,1,0,9,9,50,,,,,,,,,,,,,,,,,,,,,,,,j,1,0.6888062502257526,,,,,,,,,,,,,,,,,,104,001,2021_Sep_27_1455,joplin1,2021.2.3,60.127229289998134,
,0 0 0 0 0 1 0 0 0 1,8,categoryA,f,genfile2.csv,0,,,,,,,,,0,1,1,1,0,10,10,23,,,,,,,,,,,,,,,,,,,,,,,,f,1,0.5778673337772489,,,,,,,,,,,,,,,,,,104,001,2021_Sep_27_1455,joplin1,2021.2.3,60.127229289998134,
,1 1 0 1 1 1 0 0 1 1,3,categoryB,j,genfile2.csv,0,,,,,,,,,0,1,1,1,0,11,11,44,,,,,,,,,,,,,,,,,,,,,,,,j,1,0.41617004107683897,,,,,,,,,,,,,,,,,,104,001,2021_Sep_27_1455,joplin1,2021.2.3,60.127229289998134,
,0 0 1 0 1 0 0 1 0 0,7,categoryA,f,genfile2.csv,0,,,,,,,,,0,1,1,1,0,12,12,29,,,,,,,,,,,,,,,,,,,,,,,,j,0,0.31898962520062923,,,,,,,,,,,,,,,,,,104,001,2021_Sep_27_1455,joplin1,2021.2.3,60.127229289998134,
,1 1 0 0 1 1 1 1 0 1,3,categoryB,j,genfile2.csv,0,,,,,,,,,0,1,1,1,0,13,13,45,,,,,,,,,,,,,,,,,,,,,,,,f,0,0.013712124899029732,,,,,,,,,,,,,,,,,,104,001,2021_Sep_27_1455,joplin1,2021.2.3,60.127229289998134,
,1 1 0 0 0 0 0 0 1 1,6,categoryA,f,genfile2.csv,1,,,,,,,,,0,1,1,1,0,14,14,8,,,,,,,,,,,,,,,,,,,,,,,,f,1,1.0686444588936865,,,,,,,,,,,,,,,,,,104,001,2021_Sep_27_1455,joplin1,2021.2.3,60.127229289998134,
,1 0 1 1 1 1 1 1 0 1,2,categoryB,j,genfile2.csv,1,,,,,,,,,0,1,1,1,0,15,15,10,,,,,,,,,,,,,,,,,,,,,,,,j,1,0.31257512466982007,,,,,,,,,,,,,,,,,,104,001,2021_Sep_27_1455,joplin1,2021.2.3,60.127229289998134,
,0 0 1 1 1 1 1 1 0 0,4,categoryB,j,genfile2.csv,1,,,,,,,,,0,1,1,1,0,16,16,15,,,,,,,,,,,,,,,,,,,,,,,,j,1,0.2992956670932472,,,,,,,,,,,,,,,,,,104,001,2021_Sep_27_1455,joplin1,2021.2.3,60.127229289998134,
,1 1 1 0 0 0 0 1 1 1,4,categoryB,j,genfile2.csv,1,,,,,,,,,0,1,1,1,0,17,17,12,,,,,,,,,,,,,,,,,,,,,,,,j,1,0.8150815409608185,,,,,,,,,,,,,,,,,,104,001,2021_Sep_27_1455,joplin1,2021.2.3,60.127229289998134,
,0 0 0 1 0 0 1 0 0 0,8,categoryA,f,genfile2.csv,1,,,,,,,,,0,1,1,1,0,18,18,6,,,,,,,,,,,,,,,,,,,,,,,,f,1,0.3015345837920904,,,,,,,,,,,,,,,,,,104,001,2021_Sep_27_1455,joplin1,2021.2.3,60.127229289998134,
,1 0 1 0 1 0 1 1 1 1,3,categoryB,j,genfile2.csv,0,,,,,,,,,0,1,1,1,0,19,19,41,,,,,,,,,,,,,,,,,,,,,,,,j,1,0.35133674973621964,,,,,,,,,,,,,,,,,,104,001,2021_Sep_27_1455,joplin1,2021.2.3,60.127229289998134,
,0 0 1 0 0 0 0 0 1 0,8,categoryA,f,genfile2.csv,0,,,,,,,,,0,1,1,1,0,20,20,22,,,,,,,,,,,,,,,,,,,,,,,,j,0,1.4510837919078767,,,,,,,,,,,,,,,,,,104,001,2021_Sep_27_1455,joplin1,2021.2.3,60.127229289998134,
,1 1 1 1 1 1 1 1 0 1,1,categoryB,j,genfile2.csv,0,,,,,,,,,0,1,1,1,0,21,21,52,,,,,,,,,,,,,,,,,,,,,,,,j,1,0.28010133281350136,,,,,,,,,,,,,,,,,,104,001,2021_Sep_27_1455,joplin1,2021.2.3,60.127229289998134,
,1 1 0 1 0 0 1 0 1 1,4,categoryB,j,genfile2.csv,1,,,,,,,,,0,1,1,1,0,22,22,11,,,,,,,,,,,,,,,,,,,,,,,,f,0,0.316235916223377,,,,,,,,,,,,,,,,,,104,001,2021_Sep_27_1455,joplin1,2021.2.3,60.127229289998134,
,0 1 0 0 0 0 0 1 1 1,6,categoryA,f,genfile2.csv,0,,,,,,,,,0,1,1,1,0,23,23,32,,,,,,,,,,,,,,,,,,,,,,,,f,1,0.6430067080073059,,,,,,,,,,,,,,,,,,104,001,2021_Sep_27_1455,joplin1,2021.2.3,60.127229289998134,
,1 1 1 1 1 1 0 1 1 1,1,categoryB,j,genfile2.csv,0,,,,,,,,,0,1,1,1,0,24,24,54,,,,,,,,,,,,,,,,,,,,,,,,j,1,0.2726395409554243,,,,,,,,,,,,,,,,,,104,001,2021_Sep_27_1455,joplin1,2021.2.3,60.127229289998134,
,1 0 0 0 1 1 0 1 1 1,4,categoryB,j,genfile2.csv,0,,,,,,,,,0,1,1,1,0,25,25,40,,,,,,,,,,,,,,,,,,,,,,,,j,1,0.3537913332693279,,,,,,,,,,,,,,,,,,104,001,2021_Sep_27_1455,joplin1,2021.2.3,60.127229289998134,
,1 0 0 0 0 1 0 0 1 0,7,categoryA,f,genfile2.csv,0,,,,,,,,,0,1,1,1,0,26,26,26,,,,,,,,,,,,,,,,,,,,,,,,f,1,0.47253920789808035,,,,,,,,,,,,,,,,,,104,001,2021_Sep_27_1455,joplin1,2021.2.3,60.127229289998134,
,0 0 0 0 0 0 0 0 0 0,10,categoryA,f,genfile2.csv,0,,,,,,,,,0,1,1,1,0,27,27,0,,,,,,,,,,,,,,,,,,,,,,,,f,1,0.27538145892322063,,,,,,,,,,,,,,,,,,104,001,2021_Sep_27_1455,joplin1,2021.2.3,60.127229289998134,
,0 0 1 0 0 0 1 0 0 0,8,categoryA,f,genfile2.csv,0,,,,,,,,,0,1,1,1,0,28,28,21,,,,,,,,,,,,,,,,,,,,,,,,j,0,0.31751429103314877,,,,,,,,,,,,,,,,,,104,001,2021_Sep_27_1455,joplin1,2021.2.3,60.127229289998134,
,0 1 0 0 0 0 0 0 0 0,9,categoryA,f,genfile2.csv,0,,,,,,,,,0,1,1,1,0,29,29,18,,,,,,,,,,,,,,,,,,,,,,,,f,1,0.5834517502225935,,,,,,,,,,,,,,,,,,104,001,2021_Sep_27_1455,joplin1,2021.2.3,60.127229289998134,
,0 0 1 0 1 1 0 1 0 0,6,categoryA,f,genfile2.csv,1,,,,,,,,,0,1,1,1,0,30,30,4,,,,,,,,,,,,,,,,,,,,,,,,j,0,0.3912817081436515,,,,,,,,,,,,,,,,,,104,001,2021_Sep_27_1455,joplin1,2021.2.3,60.127229289998134,
,1 1 1 0 1 1 1 1 1 1,1,categoryB,j,genfile2.csv,0,,,,,,,,,0,1,1,1,0,31,31,53,,,,,,,,,,,,,,,,,,,,,,,,j,1,0.163764167111367,,,,,,,,,,,,,,,,,,104,001,2021_Sep_27_1455,joplin1,2021.2.3,60.127229289998134,
,1 0 0 0 0 0 0 0 0 1,8,categoryA,f,genfile2.csv,1,,,,,,,,,0,1,1,1,0,32,32,2,,,,,,,,,,,,,,,,,,,,,,,,f,1,0.5965945408679545,,,,,,,,,,,,,,,,,,104,001,2021_Sep_27_1455,joplin1,2021.2.3,60.127229289998134,
,1 1 1 1 0 0 1 0 1 1,3,categoryB,j,genfile2.csv,0,,,,,,,,,0,1,1,1,0,33,33,42,,,,,,,,,,,,,,,,,,,,,,,,j,1,0.16076958272606134,,,,,,,,,,,,,,,,,,104,001,2021_Sep_27_1455,joplin1,2021.2.3,60.127229289998134,
,1 1 1 1 1 0 1 1 1 1,1,categoryB,j,genfile2.csv,0,,,,,,,,,0,1,1,1,0,34,34,55,,,,,,,,,,,,,,,,,,,,,,,,j,1,1.0960633750073612,,,,,,,,,,,,,,,,,,104,001,2021_Sep_27_1455,joplin1,2021.2.3,60.127229289998134,
,1 1 1 1 1 0 0 1 1 1,2,categoryB,j,genfile2.csv,0,,,,,,,,,0,1,1,1,0,35,35,47,,,,,,,,,,,,,,,,,,,,,,,,j,1,0.32141479197889566,,,,,,,,,,,,,,,,,,104,001,2021_Sep_27_1455,joplin1,2021.2.3,60.127229289998134,
,0 0 0 1 1 1 1 0 0 0,6,categoryA,f,genfile2.csv,1,,,,,,,,,0,1,1,1,0,36,36,5,,,,,,,,,,,,,,,,,,,,,,,,f,1,0.24320904165506363,,,,,,,,,,,,,,,,,,104,001,2021_Sep_27_1455,joplin1,2021.2.3,60.127229289998134,
,1 1 1 0 1 1 0 1 1 1,2,categoryB,j,genfile2.csv,1,,,,,,,,,0,1,1,1,0,37,37,13,,,,,,,,,,,,,,,,,,,,,,,,j,1,0.9684676672331989,,,,,,,,,,,,,,,,,,104,001,2021_Sep_27_1455,joplin1,2021.2.3,60.127229289998134,
,1 1 0 1 1 1 1 0 1 1,2,categoryB,j,genfile2.csv,1,,,,,,,,,0,1,1,1,0,38,38,14,,,,,,,,,,,,,,,,,,,,,,,,f,0,0.2725425409153104,,,,,,,,,,,,,,,,,,104,001,2021_Sep_27_1455,joplin1,2021.2.3,60.127229289998134,
,1 0 0 0 0 0 1 0 0 1,7,categoryA,f,genfile2.csv,0,,,,,,,,,0,1,1,1,0,39,39,28,,,,,,,,,,,,,,,,,,,,,,,,f,1,0.8839234593324363,,,,,,,,,,,,,,,,,,104,001,2021_Sep_27_1455,joplin1,2021.2.3,60.127229289998134,
,1 0 1 0 1 0 1 1 1 0,4,categoryB,j,genfile2.csv,0,,,,,,,,,0,1,1,1,0,40,40,39,,,,,,,,,,,,,,,,,,,,,,,,j,1,0.2547198752872646,,,,,,,,,,,,,,,,,,104,001,2021_Sep_27_1455,joplin1,2021.2.3,60.127229289998134,
,0 0 1 1 0 0 0 0 1 1,6,categoryA,f,genfile2.csv,0,,,,,,,,,0,1,1,1,0,41,41,31,,,,,,,,,,,,,,,,,,,,,,,,j,0,0.7132279998622835,,,,,,,,,,,,,,,,,,104,001,2021_Sep_27_1455,joplin1,2021.2.3,60.127229289998134,
,1 1 0 1 1 1 1 0 0 0,4,categoryB,j,genfile2.csv,0,,,,,,,,,0,1,1,1,0,42,42,37,,,,,,,,,,,,,,,,,,,,,,,,f,0,1.754716499708593,,,,,,,,,,,,,,,,,,104,001,2021_Sep_27_1455,joplin1,2021.2.3,60.127229289998134,
,1 1 1 0 0 0 1 1 1 1,3,categoryB,j,genfile2.csv,0,,,,,,,,,0,1,1,1,0,43,43,43,,,,,,,,,,,,,,,,,,,,,,,,j,1,0.6415111250244081,,,,,,,,,,,,,,,,,,104,001,2021_Sep_27_1455,joplin1,2021.2.3,60.127229289998134,
,1 1 0 0 1 0 0 0 0 0,7,categoryA,f,genfile2.csv,0,,,,,,,,,0,1,1,1,0,44,44,27,,,,,,,,,,,,,,,,,,,,,,,,f,1,0.4775117081589997,,,,,,,,,,,,,,,,,,104,001,2021_Sep_27_1455,joplin1,2021.2.3,60.127229289998134,
,0 0 0 1 0 0 0 0 0 0,9,categoryA,f,genfile2.csv,0,,,,,,,,,0,1,1,1,0,45,45,16,,,,,,,,,,,,,,,,,,,,,,,,f,1,1.216851375065744,,,,,,,,,,,,,,,,,,104,001,2021_Sep_27_1455,joplin1,2021.2.3,60.127229289998134,
,0 0 1 0 1 0 1 1 1 1,4,categoryB,j,genfile2.csv,0,,,,,,,,,0,1,1,1,0,46,46,38,,,,,,,,,,,,,,,,,,,,,,,,j,1,0.6525616250000894,,,,,,,,,,,,,,,,,,104,001,2021_Sep_27_1455,joplin1,2021.2.3,60.127229289998134,
,0 1 1 0 1 1 0 1 0 1,4,categoryB,j,genfile2.csv,0,,,,,,,,,0,1,1,1,0,47,47,36,,,,,,,,,,,,,,,,,,,,,,,,j,1,0.8952957503497601,,,,,,,,,,,,,,,,,,104,001,2021_Sep_27_1455,joplin1,2021.2.3,60.127229289998134,
,1 0 1 1 1 0 1 1 1 1,2,categoryB,j,genfile2.csv,0,,,,,,,,,0,1,1,1,0,48,48,46,,,,,,,,,,,,,,,,,,,,,,,,j,1,0.31361141614615917,,,,,,,,,,,,,,,,,,104,001,2021_Sep_27_1455,joplin1,2021.2.3,60.127229289998134,
,0 0 0 0 0 0 0 1 0 0,9,categoryA,f,genfile2.csv,0,,,,,,,,,0,1,1,1,0,49,49,17,,,,,,,,,,,,,,,,,,,,,,,,f,1,0.30705170799046755,,,,,,,,,,,,,,,,,,104,001,2021_Sep_27_1455,joplin1,2021.2.3,60.127229289998134,
,0 0 1 0 0 0 0 0 0 0,9,categoryA,f,genfile2.csv,0,,,,,,,,,0,1,1,1,0,50,50,20,,,,,,,,,,,,,,,,,,,,,,,,j,0,0.3328225421719253,,,,,,,,,,,,,,,,,,104,001,2021_Sep_27_1455,joplin1,2021.2.3,60.127229289998134,
,0 1 1 0 1 0 0 1 0 0,6,categoryA,f,genfile2.csv,0,,,,,,,,,0,1,1,1,0,51,51,33,,,,,,,,,,,,,,,,,,,,,,,,j,0,0.7589417910203338,,,,,,,,,,,,,,,,,,104,001,2021_Sep_27_1455,joplin1,2021.2.3,60.127229289998134,
,0 1 1 1 1 1 1 1 0 1,2,categoryB,j,genfile2.csv,0,,,,,,,,,0,1,1,1,0,52,52,49,,,,,,,,,,,,,,,,,,,,,,,,j,1,0.5027196248993278,,,,,,,,,,,,,,,,,,104,001,2021_Sep_27_1455,joplin1,2021.2.3,60.127229289998134,
,0 1 1 1 1 1 1 1 1 0,2,categoryB,j,genfile2.csv,1,,,,,,,,,0,1,1,1,0,53,53,9,,,,,,,,,,,,,,,,,,,,,,,,j,1,0.26502875005826354,,,,,,,,,,,,,,,,,,104,001,2021_Sep_27_1455,joplin1,2021.2.3,60.127229289998134,
,1 1 1 0 1 0 0 0 0 0,6,categoryA,f,genfile2.csv,0,,,,,,,,,0,1,1,1,0,54,54,35,,,,,,,,,,,,,,,,,,,,,,,,j,0,0.23619941668584943,,,,,,,,,,,,,,,,,,104,001,2021_Sep_27_1455,joplin1,2021.2.3,60.127229289998134,
,0 0 0 0 0 0 0 0 1 0,9,categoryA,f,genfile2.csv,0,,,,,,,,,0,1,1,1,0,55,55,19,,,,,,,,,,,,,,,,,,,,,,,,f,1,0.37667608400806785,,,,,,,,,,,,,,,,,,104,001,2021_Sep_27_1455,joplin1,2021.2.3,60.127229289998134,
,,,,,genfile2.csv,,,,,,,,,,0,1,1,1,,,,,,,,,,,,,,,,,,space,1.376533417031169,,,,,,,,,,,,,,,,,,,,,,,,,,,,,104,001,2021_Sep_27_1455,joplin1,2021.2.3,60.127229289998134,
,,,,,,,,,,,,,,,,,,,,,,,,,,,,,,,,,,,,,,,,,,,,,,,,,None,,,,,,,,,,,,,,,,,104,001,2021_Sep_27_1455,joplin1,2021.2.3,60.127229289998134,
,,,,,,,,,,,,,,,,,,,,,,,,,,,,,,,,,,,,,,,,,,,,,,,,,,None,,,,,,,,,,,,,,,,104,001,2021_Sep_27_1455,joplin1,2021.2.3,60.127229289998134,
,,,,,,,,,,,,,,,,,,,,,,,,,,,,,,,,,,,,,,,,,,,,,,,,,,,0.7,radio,0.3,Are you Hispanic/Latino?,0,None,None,None,None,,,,,,,104,001,2021_Sep_27_1455,joplin1,2021.2.3,60.127229289998134,
,,,,,,,,,,,,,,,,,,,,,,,,,,,,,,,,,,,,,,,,,,,,,,,,,,,0.7,radio,0.3,Are you an American Indian or Alaska Native?,1,None,None,None,None,,,,,,,104,001,2021_Sep_27_1455,joplin1,2021.2.3,60.127229289998134,
,,,,,,,,,,,,,,,,,,,,,,,,,,,,,,,,,,,,,,,,,,,,,,,,,,,0.7,radio,0.3,Are you Asian?,2,None,None,None,None,,,,,,,104,001,2021_Sep_27_1455,joplin1,2021.2.3,60.127229289998134,
,,,,,,,,,,,,,,,,,,,,,,,,,,,,,,,,,,,,,,,,,,,,,,,,,,,0.7,radio,0.3,Are you Black or African American?,3,None,None,None,None,,,,,,,104,001,2021_Sep_27_1455,joplin1,2021.2.3,60.127229289998134,
,,,,,,,,,,,,,,,,,,,,,,,,,,,,,,,,,,,,,,,,,,,,,,,,,,,0.7,radio,0.3,Are you a Native Hawaiian or other Pacific Islander?,4,None,None,None,None,,,,,,,104,001,2021_Sep_27_1455,joplin1,2021.2.3,60.127229289998134,
,,,,,,,,,,,,,,,,,,,,,,,,,,,,,,,,,,,,,,,,,,,,,,,,,,,0.7,radio,0.3,Are you White?,5,None,None,None,None,,,,,,,104,001,2021_Sep_27_1455,joplin1,2021.2.3,60.127229289998134,
,,,,,,,,,,,,,,,,,,,,,,,,,,,,,,,,,,,,,,,,,,,,,,,,,,,0.85,radio,0.3,"Do you have any history of neurological issues such as stroke, head injury or a neurodegenerative disorder?",6,None,None,None,None,,,,,,,104,001,2021_Sep_27_1455,joplin1,2021.2.3,60.127229289998134,
,,,,,,,,,,,,,,,,,,,,,,,,,,,,,,,,,,,,,,,,,,,,,,,,,,,,,,,,,,,,None,,,,,,104,001,2021_Sep_27_1455,joplin1,2021.2.3,60.127229289998134,
,,,,,,,,,,,,,,,,,,,,,,,,,,,,,,,,,,,,,,,,,,,,,,,,,,,,,,,,,,,,,None,,,,,104,001,2021_Sep_27_1455,joplin1,2021.2.3,60.127229289998134,
,,,,,,,,,,,,,,,,,,,,,,,,,,,,,,,,,,,,,,,,,,,,,,,,,,,,,,,,,,,,,,,,None,,104,001,2021_Sep_27_1455,joplin1,2021.2.3,60.127229289998134,
,,,,,,,,,,,,,,,,,,,,,,,,,,,,,,,,,,,,,,,,,,,,,,,,,,,,,,,,,,,,,,,,,,,,,,,,
