train_set,stim_id,sums_feat,category,correct_key,gen_file,train_item,train_runs.thisRepN,train_runs.thisTrialN,train_runs.thisN,train_runs.thisIndex,train_trials.thisRepN,train_trials.thisTrialN,train_trials.thisN,train_trials.thisIndex,test_runs.thisRepN,test_runs.thisTrialN,test_runs.thisN,test_runs.thisIndex,test_trials.thisRepN,test_trials.thisTrialN,test_trials.thisN,test_trials.thisIndex,welcome_key.keys,welcome_key.rt,welcome_key.started,welcome_key.stopped,train_inst1_key.keys,train_inst1_key.rt,train_inst2_key.keys,train_inst2_key.rt,train_begin_key.keys,train_begin_key.rt,train_key.keys,train_key.corr,train_key.rt,break_key.keys,break_key.rt,key_resp.keys,key_resp.rt,test_inst1_key.keys,test_inst1_key.rt,test_inst2_key.keys,test_inst2_key.rt,test_begin_key.keys,test_begin_key.rt,test_key.keys,test_key.corr,test_key.rt,test_end_key.keys,test_end_key.rt,demo_inst1_key.keys,demo_inst1_key.rt,form.questionWidth,form.type,form.respWidth,form.itemText,form.index,form.font,form.markerColor,form.response,form.rt,form_key.keys,form_key.rt,demo_inst2_key.keys,demo_inst2_key.rt,gender_string,age_string,demo4_key.keys,demo4_key.rt,typedWord,participant,session,date,expName,psychopyVersion,frameRate,
,,,,,,,,,,,,,,,,,,,,,,,space,12.379149416927248,936.59056924982,None,,,,,,,,,,,,,,,,,,,,,,,,,,,,,,,,,,,,,,,,,,,,,104,002,2021_Sep_29_1452,joplin1,2021.2.3,59.993400703609076,
,,,,,,,,,,,,,,,,,,,,,,,,,,,j,5.780428083147854,,,,,,,,,,,,,,,,,,,,,,,,,,,,,,,,,,,,,,,,,,,104,002,2021_Sep_29_1452,joplin1,2021.2.3,59.993400703609076,
,,,,,,,,,,,,,,,,,,,,,,,,,,,,,space,5.015079792123288,,,,,,,,,,,,,,,,,,,,,,,,,,,,,,,,,,,,,,,,,104,002,2021_Sep_29_1452,joplin1,2021.2.3,59.993400703609076,
,,,,,,,,,,,,,,,,,,,,,,,,,,,,,,,space,2.519101000390947,,,,,,,,,,,,,,,,,,,,,,,,,,,,,,,,,,,,,,,104,002,2021_Sep_29_1452,joplin1,2021.2.3,59.993400703609076,
_train_cond.csv,1 1 0 1 0 0 1 0 1 1,4,categoryB,j,,,0,0,0,1,0,0,0,9,,,,,,,,,,,,,,,,,,,None,0,,,,,,,,,,,,,,,,,,,,,,,,,,,,,,,,,,,,,104,002,2021_Sep_29_1452,joplin1,2021.2.3,59.993400703609076,
_train_cond.csv,0 0 0 1 1 1 1 0 0 0,6,categoryA,f,,,0,0,0,1,0,1,1,3,,,,,,,,,,,,,,,,,,,j,0,0.36997320922091603,,,,,,,,,,,,,,,,,,,,,,,,,,,,,,,,,,,,104,002,2021_Sep_29_1452,joplin1,2021.2.3,59.993400703609076,
_train_cond.csv,1 1 1 0 0 0 0 1 1 1,4,categoryB,j,,,0,0,0,1,0,2,2,10,,,,,,,,,,,,,,,,,,,j,1,0.8806930002756417,,,,,,,,,,,,,,,,,,,,,,,,,,,,,,,,,,,,104,002,2021_Sep_29_1452,joplin1,2021.2.3,59.993400703609076,
_train_cond.csv,0 1 0 0 0 0 0 0 1 0,8,categoryA,f,,,0,0,0,1,0,3,3,1,,,,,,,,,,,,,,,,,,,j,0,0.14556320803239942,,,,,,,,,,,,,,,,,,,,,,,,,,,,,,,,,,,,104,002,2021_Sep_29_1452,joplin1,2021.2.3,59.993400703609076,
_train_cond.csv,0 1 1 1 1 1 1 1 1 0,2,categoryB,j,,,0,0,0,1,0,4,4,7,,,,,,,,,,,,,,,,,,,j,1,0.4652163749560714,,,,,,,,,,,,,,,,,,,,,,,,,,,,,,,,,,,,104,002,2021_Sep_29_1452,joplin1,2021.2.3,59.993400703609076,
_train_cond.csv,0 0 1 1 1 1 1 1 0 0,4,categoryB,j,,,0,0,0,1,0,5,5,13,,,,,,,,,,,,,,,,,,,j,1,0.28431387478485703,,,,,,,,,,,,,,,,,,,,,,,,,,,,,,,,,,,,104,002,2021_Sep_29_1452,joplin1,2021.2.3,59.993400703609076,
_train_cond.csv,0 0 1 0 1 1 0 1 0 0,6,categoryA,f,,,0,0,0,1,0,6,6,2,,,,,,,,,,,,,,,,,,,j,0,0.07834333274513483,,,,,,,,,,,,,,,,,,,,,,,,,,,,,,,,,,,,104,002,2021_Sep_29_1452,joplin1,2021.2.3,59.993400703609076,
_train_cond.csv,0 0 0 1 0 0 1 0 0 0,8,categoryA,f,,,0,0,0,1,0,7,7,4,,,,,,,,,,,,,,,,,,,f,1,0.34566316613927484,,,,,,,,,,,,,,,,,,,,,,,,,,,,,,,,,,,,104,002,2021_Sep_29_1452,joplin1,2021.2.3,59.993400703609076,
_train_cond.csv,1 1 1 0 1 1 0 1 1 1,2,categoryB,j,,,0,0,0,1,0,8,8,11,,,,,,,,,,,,,,,,,,,j,1,0.3979612081311643,,,,,,,,,,,,,,,,,,,,,,,,,,,,,,,,,,,,104,002,2021_Sep_29_1452,joplin1,2021.2.3,59.993400703609076,
_train_cond.csv,1 1 0 0 0 0 0 0 1 1,6,categoryA,f,,,0,0,0,1,0,9,9,6,,,,,,,,,,,,,,,,,,,f,1,0.21092712506651878,,,,,,,,,,,,,,,,,,,,,,,,,,,,,,,,,,,,104,002,2021_Sep_29_1452,joplin1,2021.2.3,59.993400703609076,
_train_cond.csv,1 0 0 0 0 0 0 0 0 1,8,categoryA,f,,,0,0,0,1,0,10,10,0,,,,,,,,,,,,,,,,,,,f,1,1.1993869999423623,,,,,,,,,,,,,,,,,,,,,,,,,,,,,,,,,,,,104,002,2021_Sep_29_1452,joplin1,2021.2.3,59.993400703609076,
_train_cond.csv,1 1 0 1 1 1 1 0 1 1,2,categoryB,j,,,0,0,0,1,0,11,11,12,,,,,,,,,,,,,,,,,,,f,0,0.7662972076795995,,,,,,,,,,,,,,,,,,,,,,,,,,,,,,,,,,,,104,002,2021_Sep_29_1452,joplin1,2021.2.3,59.993400703609076,
_train_cond.csv,0 0 1 0 0 0 0 1 0 0,8,categoryA,f,,,0,0,0,1,0,12,12,5,,,,,,,,,,,,,,,,,,,j,0,0.5010107499547303,,,,,,,,,,,,,,,,,,,,,,,,,,,,,,,,,,,,104,002,2021_Sep_29_1452,joplin1,2021.2.3,59.993400703609076,
_train_cond.csv,1 0 1 1 1 1 1 1 0 1,2,categoryB,j,,,0,0,0,1,0,13,13,8,,,,,,,,,,,,,,,,,,,j,1,0.6068015000782907,,,,,,,,,,,,,,,,,,,,,,,,,,,,,,,,,,,,104,002,2021_Sep_29_1452,joplin1,2021.2.3,59.993400703609076,
_train_cond.csv,0 0 0 1 0 0 1 0 0 0,8,categoryA,f,,,0,0,0,1,1,0,14,4,,,,,,,,,,,,,,,,,,,j,0,1.0453179581090808,,,,,,,,,,,,,,,,,,,,,,,,,,,,,,,,,,,,104,002,2021_Sep_29_1452,joplin1,2021.2.3,59.993400703609076,
_train_cond.csv,1 1 0 1 0 0 1 0 1 1,4,categoryB,j,,,0,0,0,1,1,1,15,9,,,,,,,,,,,,,,,,,,,j,1,0.46699216682463884,,,,,,,,,,,,,,,,,,,,,,,,,,,,,,,,,,,,104,002,2021_Sep_29_1452,joplin1,2021.2.3,59.993400703609076,
_train_cond.csv,0 0 1 0 1 1 0 1 0 0,6,categoryA,f,,,0,0,0,1,1,2,16,2,,,,,,,,,,,,,,,,,,,f,1,0.5595896253362298,,,,,,,,,,,,,,,,,,,,,,,,,,,,,,,,,,,,104,002,2021_Sep_29_1452,joplin1,2021.2.3,59.993400703609076,
_train_cond.csv,0 1 1 1 1 1 1 1 1 0,2,categoryB,j,,,0,0,0,1,1,3,17,7,,,,,,,,,,,,,,,,,,,f,0,1.2234671670012176,,,,,,,,,,,,,,,,,,,,,,,,,,,,,,,,,,,,104,002,2021_Sep_29_1452,joplin1,2021.2.3,59.993400703609076,
_train_cond.csv,0 0 1 1 1 1 1 1 0 0,4,categoryB,j,,,0,0,0,1,1,4,18,13,,,,,,,,,,,,,,,,,,,j,1,0.9895992497913539,,,,,,,,,,,,,,,,,,,,,,,,,,,,,,,,,,,,104,002,2021_Sep_29_1452,joplin1,2021.2.3,59.993400703609076,
_train_cond.csv,1 1 1 0 0 0 0 1 1 1,4,categoryB,j,,,0,0,0,1,1,5,19,10,,,,,,,,,,,,,,,,,,,f,0,0.9902496668510139,,,,,,,,,,,,,,,,,,,,,,,,,,,,,,,,,,,,104,002,2021_Sep_29_1452,joplin1,2021.2.3,59.993400703609076,
_train_cond.csv,1 1 1 0 1 1 0 1 1 1,2,categoryB,j,,,0,0,0,1,1,6,20,11,,,,,,,,,,,,,,,,,,,j,1,1.4350274167954922,,,,,,,,,,,,,,,,,,,,,,,,,,,,,,,,,,,,104,002,2021_Sep_29_1452,joplin1,2021.2.3,59.993400703609076,
_train_cond.csv,1 1 0 0 0 0 0 0 1 1,6,categoryA,f,,,0,0,0,1,1,7,21,6,,,,,,,,,,,,,,,,,,,j,0,0.5603249999694526,,,,,,,,,,,,,,,,,,,,,,,,,,,,,,,,,,,,104,002,2021_Sep_29_1452,joplin1,2021.2.3,59.993400703609076,
_train_cond.csv,1 1 0 1 1 1 1 0 1 1,2,categoryB,j,,,0,0,0,1,1,8,22,12,,,,,,,,,,,,,,,,,,,f,0,0.4327446250244975,,,,,,,,,,,,,,,,,,,,,,,,,,,,,,,,,,,,104,002,2021_Sep_29_1452,joplin1,2021.2.3,59.993400703609076,
_train_cond.csv,0 1 0 0 0 0 0 0 1 0,8,categoryA,f,,,0,0,0,1,1,9,23,1,,,,,,,,,,,,,,,,,,,f,1,0.2775684162043035,,,,,,,,,,,,,,,,,,,,,,,,,,,,,,,,,,,,104,002,2021_Sep_29_1452,joplin1,2021.2.3,59.993400703609076,
_train_cond.csv,0 0 0 1 1 1 1 0 0 0,6,categoryA,f,,,0,0,0,1,1,10,24,3,,,,,,,,,,,,,,,,,,,f,1,0.7918450003489852,,,,,,,,,,,,,,,,,,,,,,,,,,,,,,,,,,,,104,002,2021_Sep_29_1452,joplin1,2021.2.3,59.993400703609076,
_train_cond.csv,1 0 0 0 0 0 0 0 0 1,8,categoryA,f,,,0,0,0,1,1,11,25,0,,,,,,,,,,,,,,,,,,,j,0,0.4075562497600913,,,,,,,,,,,,,,,,,,,,,,,,,,,,,,,,,,,,104,002,2021_Sep_29_1452,joplin1,2021.2.3,59.993400703609076,
_train_cond.csv,1 0 1 1 1 1 1 1 0 1,2,categoryB,j,,,0,0,0,1,1,12,26,8,,,,,,,,,,,,,,,,,,,j,1,0.3094828329049051,,,,,,,,,,,,,,,,,,,,,,,,,,,,,,,,,,,,104,002,2021_Sep_29_1452,joplin1,2021.2.3,59.993400703609076,
_train_cond.csv,0 0 1 0 0 0 0 1 0 0,8,categoryA,f,,,0,0,0,1,1,13,27,5,,,,,,,,,,,,,,,,,,,j,0,0.44808595767244697,,,,,,,,,,,,,,,,,,,,,,,,,,,,,,,,,,,,104,002,2021_Sep_29_1452,joplin1,2021.2.3,59.993400703609076,
_train_cond.csv,0 1 0 0 0 0 0 0 1 0,8,categoryA,f,,,0,0,0,1,2,0,28,1,,,,,,,,,,,,,,,,,,,f,1,1.4695786670781672,,,,,,,,,,,,,,,,,,,,,,,,,,,,,,,,,,,,104,002,2021_Sep_29_1452,joplin1,2021.2.3,59.993400703609076,
_train_cond.csv,1 0 0 0 0 0 0 0 0 1,8,categoryA,f,,,0,0,0,1,2,1,29,0,,,,,,,,,,,,,,,,,,,f,1,0.44051295798271894,,,,,,,,,,,,,,,,,,,,,,,,,,,,,,,,,,,,104,002,2021_Sep_29_1452,joplin1,2021.2.3,59.993400703609076,
_train_cond.csv,0 0 1 1 1 1 1 1 0 0,4,categoryB,j,,,0,0,0,1,2,2,30,13,,,,,,,,,,,,,,,,,,,j,1,0.2460789168253541,,,,,,,,,,,,,,,,,,,,,,,,,,,,,,,,,,,,104,002,2021_Sep_29_1452,joplin1,2021.2.3,59.993400703609076,
_train_cond.csv,0 0 1 0 1 1 0 1 0 0,6,categoryA,f,,,0,0,0,1,2,3,31,2,,,,,,,,,,,,,,,,,,,j,0,0.27498225029557943,,,,,,,,,,,,,,,,,,,,,,,,,,,,,,,,,,,,104,002,2021_Sep_29_1452,joplin1,2021.2.3,59.993400703609076,
_train_cond.csv,1 1 0 1 0 0 1 0 1 1,4,categoryB,j,,,0,0,0,1,2,4,32,9,,,,,,,,,,,,,,,,,,,f,0,0.37342399964109063,,,,,,,,,,,,,,,,,,,,,,,,,,,,,,,,,,,,104,002,2021_Sep_29_1452,joplin1,2021.2.3,59.993400703609076,
_train_cond.csv,0 0 1 0 0 0 0 1 0 0,8,categoryA,f,,,0,0,0,1,2,5,33,5,,,,,,,,,,,,,,,,,,,j,0,0.9492922080680728,,,,,,,,,,,,,,,,,,,,,,,,,,,,,,,,,,,,104,002,2021_Sep_29_1452,joplin1,2021.2.3,59.993400703609076,
_train_cond.csv,1 1 1 0 0 0 0 1 1 1,4,categoryB,j,,,0,0,0,1,2,6,34,10,,,,,,,,,,,,,,,,,,,f,0,0.4779800418764353,,,,,,,,,,,,,,,,,,,,,,,,,,,,,,,,,,,,104,002,2021_Sep_29_1452,joplin1,2021.2.3,59.993400703609076,
_train_cond.csv,1 1 0 0 0 0 0 0 1 1,6,categoryA,f,,,0,0,0,1,2,7,35,6,,,,,,,,,,,,,,,,,,,j,0,0.5930624171160161,,,,,,,,,,,,,,,,,,,,,,,,,,,,,,,,,,,,104,002,2021_Sep_29_1452,joplin1,2021.2.3,59.993400703609076,
_train_cond.csv,0 0 0 1 0 0 1 0 0 0,8,categoryA,f,,,0,0,0,1,2,8,36,4,,,,,,,,,,,,,,,,,,,j,0,1.3359037078917027,,,,,,,,,,,,,,,,,,,,,,,,,,,,,,,,,,,,104,002,2021_Sep_29_1452,joplin1,2021.2.3,59.993400703609076,
_train_cond.csv,1 0 1 1 1 1 1 1 0 1,2,categoryB,j,,,0,0,0,1,2,9,37,8,,,,,,,,,,,,,,,,,,,j,1,0.4734150841832161,,,,,,,,,,,,,,,,,,,,,,,,,,,,,,,,,,,,104,002,2021_Sep_29_1452,joplin1,2021.2.3,59.993400703609076,
_train_cond.csv,1 1 1 0 1 1 0 1 1 1,2,categoryB,j,,,0,0,0,1,2,10,38,11,,,,,,,,,,,,,,,,,,,f,0,0.2528871246613562,,,,,,,,,,,,,,,,,,,,,,,,,,,,,,,,,,,,104,002,2021_Sep_29_1452,joplin1,2021.2.3,59.993400703609076,
_train_cond.csv,0 1 1 1 1 1 1 1 1 0,2,categoryB,j,,,0,0,0,1,2,11,39,7,,,,,,,,,,,,,,,,,,,j,1,0.2807184159755707,,,,,,,,,,,,,,,,,,,,,,,,,,,,,,,,,,,,104,002,2021_Sep_29_1452,joplin1,2021.2.3,59.993400703609076,
_train_cond.csv,0 0 0 1 1 1 1 0 0 0,6,categoryA,f,,,0,0,0,1,2,12,40,3,,,,,,,,,,,,,,,,,,,j,0,0.5955087090842426,,,,,,,,,,,,,,,,,,,,,,,,,,,,,,,,,,,,104,002,2021_Sep_29_1452,joplin1,2021.2.3,59.993400703609076,
_train_cond.csv,1 1 0 1 1 1 1 0 1 1,2,categoryB,j,,,0,0,0,1,2,13,41,12,,,,,,,,,,,,,,,,,,,f,0,0.07413320802152157,,,,,,,,,,,,,,,,,,,,,,,,,,,,,,,,,,,,104,002,2021_Sep_29_1452,joplin1,2021.2.3,59.993400703609076,
_train_cond.csv,,,,,,,0,0,0,1,,,,,,,,,,,,,,,,,,,,,,,,,,space,1.7974610826931894,,,,,,,,,,,,,,,,,,,,,,,,,,,,,,,,,,104,002,2021_Sep_29_1452,joplin1,2021.2.3,59.993400703609076,
_train_cond.csv,1 1 0 1 1 1 1 0 1 1,2,categoryB,j,,,0,1,1,0,0,0,0,12,,,,,,,,,,,,,,,,,,,j,1,1.2447859579697251,,,,,,,,,,,,,,,,,,,,,,,,,,,,,,,,,,,,104,002,2021_Sep_29_1452,joplin1,2021.2.3,59.993400703609076,
_train_cond.csv,1 1 1 0 1 1 0 1 1 1,2,categoryB,j,,,0,1,1,0,0,1,1,11,,,,,,,,,,,,,,,,,,,j,1,0.5052188746631145,,,,,,,,,,,,,,,,,,,,,,,,,,,,,,,,,,,,104,002,2021_Sep_29_1452,joplin1,2021.2.3,59.993400703609076,
_train_cond.csv,1 1 0 1 0 0 1 0 1 1,4,categoryB,j,,,0,1,1,0,0,2,2,9,,,,,,,,,,,,,,,,,,,f,0,0.28441066620871425,,,,,,,,,,,,,,,,,,,,,,,,,,,,,,,,,,,,104,002,2021_Sep_29_1452,joplin1,2021.2.3,59.993400703609076,
_train_cond.csv,0 0 0 1 0 0 1 0 0 0,8,categoryA,f,,,0,1,1,0,0,3,3,4,,,,,,,,,,,,,,,,,,,j,0,0.7034245417453349,,,,,,,,,,,,,,,,,,,,,,,,,,,,,,,,,,,,104,002,2021_Sep_29_1452,joplin1,2021.2.3,59.993400703609076,
_train_cond.csv,1 1 0 0 0 0 0 0 1 1,6,categoryA,f,,,0,1,1,0,0,4,4,6,,,,,,,,,,,,,,,,,,,j,0,0.881253750063479,,,,,,,,,,,,,,,,,,,,,,,,,,,,,,,,,,,,104,002,2021_Sep_29_1452,joplin1,2021.2.3,59.993400703609076,
_train_cond.csv,0 0 1 0 0 0 0 1 0 0,8,categoryA,f,,,0,1,1,0,0,5,5,5,,,,,,,,,,,,,,,,,,,j,0,0.3733746251091361,,,,,,,,,,,,,,,,,,,,,,,,,,,,,,,,,,,,104,002,2021_Sep_29_1452,joplin1,2021.2.3,59.993400703609076,
_train_cond.csv,0 0 0 1 1 1 1 0 0 0,6,categoryA,f,,,0,1,1,0,0,6,6,3,,,,,,,,,,,,,,,,,,,j,0,0.44593720883131027,,,,,,,,,,,,,,,,,,,,,,,,,,,,,,,,,,,,104,002,2021_Sep_29_1452,joplin1,2021.2.3,59.993400703609076,
_train_cond.csv,0 0 1 1 1 1 1 1 0 0,4,categoryB,j,,,0,1,1,0,0,7,7,13,,,,,,,,,,,,,,,,,,,j,1,0.3549035000614822,,,,,,,,,,,,,,,,,,,,,,,,,,,,,,,,,,,,104,002,2021_Sep_29_1452,joplin1,2021.2.3,59.993400703609076,
_train_cond.csv,0 1 0 0 0 0 0 0 1 0,8,categoryA,f,,,0,1,1,0,0,8,8,1,,,,,,,,,,,,,,,,,,,f,1,0.27553745824843645,,,,,,,,,,,,,,,,,,,,,,,,,,,,,,,,,,,,104,002,2021_Sep_29_1452,joplin1,2021.2.3,59.993400703609076,
_train_cond.csv,0 1 1 1 1 1 1 1 1 0,2,categoryB,j,,,0,1,1,0,0,9,9,7,,,,,,,,,,,,,,,,,,,j,1,0.4630862092599273,,,,,,,,,,,,,,,,,,,,,,,,,,,,,,,,,,,,104,002,2021_Sep_29_1452,joplin1,2021.2.3,59.993400703609076,
_train_cond.csv,1 1 1 0 0 0 0 1 1 1,4,categoryB,j,,,0,1,1,0,0,10,10,10,,,,,,,,,,,,,,,,,,,j,1,0.3958955411799252,,,,,,,,,,,,,,,,,,,,,,,,,,,,,,,,,,,,104,002,2021_Sep_29_1452,joplin1,2021.2.3,59.993400703609076,
_train_cond.csv,0 0 1 0 1 1 0 1 0 0,6,categoryA,f,,,0,1,1,0,0,11,11,2,,,,,,,,,,,,,,,,,,,f,1,0.7313957079313695,,,,,,,,,,,,,,,,,,,,,,,,,,,,,,,,,,,,104,002,2021_Sep_29_1452,joplin1,2021.2.3,59.993400703609076,
_train_cond.csv,1 0 0 0 0 0 0 0 0 1,8,categoryA,f,,,0,1,1,0,0,12,12,0,,,,,,,,,,,,,,,,,,,f,1,0.6768583753146231,,,,,,,,,,,,,,,,,,,,,,,,,,,,,,,,,,,,104,002,2021_Sep_29_1452,joplin1,2021.2.3,59.993400703609076,
_train_cond.csv,1 0 1 1 1 1 1 1 0 1,2,categoryB,j,,,0,1,1,0,0,13,13,8,,,,,,,,,,,,,,,,,,,f,0,0.3048469997011125,,,,,,,,,,,,,,,,,,,,,,,,,,,,,,,,,,,,104,002,2021_Sep_29_1452,joplin1,2021.2.3,59.993400703609076,
_train_cond.csv,0 1 0 0 0 0 0 0 1 0,8,categoryA,f,,,0,1,1,0,1,0,14,1,,,,,,,,,,,,,,,,,,,j,0,0.8739285417832434,,,,,,,,,,,,,,,,,,,,,,,,,,,,,,,,,,,,104,002,2021_Sep_29_1452,joplin1,2021.2.3,59.993400703609076,
_train_cond.csv,0 0 1 1 1 1 1 1 0 0,4,categoryB,j,,,0,1,1,0,1,1,15,13,,,,,,,,,,,,,,,,,,,j,1,1.4380675829015672,,,,,,,,,,,,,,,,,,,,,,,,,,,,,,,,,,,,104,002,2021_Sep_29_1452,joplin1,2021.2.3,59.993400703609076,
_train_cond.csv,1 1 0 1 0 0 1 0 1 1,4,categoryB,j,,,0,1,1,0,1,2,16,9,,,,,,,,,,,,,,,,,,,j,1,0.7705770418979228,,,,,,,,,,,,,,,,,,,,,,,,,,,,,,,,,,,,104,002,2021_Sep_29_1452,joplin1,2021.2.3,59.993400703609076,
_train_cond.csv,1 1 1 0 0 0 0 1 1 1,4,categoryB,j,,,0,1,1,0,1,3,17,10,,,,,,,,,,,,,,,,,,,f,0,0.7384397918358445,,,,,,,,,,,,,,,,,,,,,,,,,,,,,,,,,,,,104,002,2021_Sep_29_1452,joplin1,2021.2.3,59.993400703609076,
_train_cond.csv,0 1 1 1 1 1 1 1 1 0,2,categoryB,j,,,0,1,1,0,1,4,18,7,,,,,,,,,,,,,,,,,,,j,1,0.555580792017281,,,,,,,,,,,,,,,,,,,,,,,,,,,,,,,,,,,,104,002,2021_Sep_29_1452,joplin1,2021.2.3,59.993400703609076,
_train_cond.csv,0 0 0 1 0 0 1 0 0 0,8,categoryA,f,,,0,1,1,0,1,5,19,4,,,,,,,,,,,,,,,,,,,j,0,0.6357651669532061,,,,,,,,,,,,,,,,,,,,,,,,,,,,,,,,,,,,104,002,2021_Sep_29_1452,joplin1,2021.2.3,59.993400703609076,
_train_cond.csv,1 0 1 1 1 1 1 1 0 1,2,categoryB,j,,,0,1,1,0,1,6,20,8,,,,,,,,,,,,,,,,,,,j,1,1.1528962920419872,,,,,,,,,,,,,,,,,,,,,,,,,,,,,,,,,,,,104,002,2021_Sep_29_1452,joplin1,2021.2.3,59.993400703609076,
_train_cond.csv,0 0 0 1 1 1 1 0 0 0,6,categoryA,f,,,0,1,1,0,1,7,21,3,,,,,,,,,,,,,,,,,,,j,0,0.34499804209917784,,,,,,,,,,,,,,,,,,,,,,,,,,,,,,,,,,,,104,002,2021_Sep_29_1452,joplin1,2021.2.3,59.993400703609076,
_train_cond.csv,1 1 0 1 1 1 1 0 1 1,2,categoryB,j,,,0,1,1,0,1,8,22,12,,,,,,,,,,,,,,,,,,,j,1,0.43313887482509017,,,,,,,,,,,,,,,,,,,,,,,,,,,,,,,,,,,,104,002,2021_Sep_29_1452,joplin1,2021.2.3,59.993400703609076,
_train_cond.csv,1 1 1 0 1 1 0 1 1 1,2,categoryB,j,,,0,1,1,0,1,9,23,11,,,,,,,,,,,,,,,,,,,j,1,0.7902598748914897,,,,,,,,,,,,,,,,,,,,,,,,,,,,,,,,,,,,104,002,2021_Sep_29_1452,joplin1,2021.2.3,59.993400703609076,
_train_cond.csv,1 0 0 0 0 0 0 0 0 1,8,categoryA,f,,,0,1,1,0,1,10,24,0,,,,,,,,,,,,,,,,,,,j,0,1.1655617081560194,,,,,,,,,,,,,,,,,,,,,,,,,,,,,,,,,,,,104,002,2021_Sep_29_1452,joplin1,2021.2.3,59.993400703609076,
_train_cond.csv,1 1 0 0 0 0 0 0 1 1,6,categoryA,f,,,0,1,1,0,1,11,25,6,,,,,,,,,,,,,,,,,,,j,0,0.30222770804539323,,,,,,,,,,,,,,,,,,,,,,,,,,,,,,,,,,,,104,002,2021_Sep_29_1452,joplin1,2021.2.3,59.993400703609076,
_train_cond.csv,0 0 1 0 0 0 0 1 0 0,8,categoryA,f,,,0,1,1,0,1,12,26,5,,,,,,,,,,,,,,,,,,,j,0,0.2882550829090178,,,,,,,,,,,,,,,,,,,,,,,,,,,,,,,,,,,,104,002,2021_Sep_29_1452,joplin1,2021.2.3,59.993400703609076,
_train_cond.csv,0 0 1 0 1 1 0 1 0 0,6,categoryA,f,,,0,1,1,0,1,13,27,2,,,,,,,,,,,,,,,,,,,j,0,0.3162277080118656,,,,,,,,,,,,,,,,,,,,,,,,,,,,,,,,,,,,104,002,2021_Sep_29_1452,joplin1,2021.2.3,59.993400703609076,
_train_cond.csv,0 1 0 0 0 0 0 0 1 0,8,categoryA,f,,,0,1,1,0,2,0,28,1,,,,,,,,,,,,,,,,,,,f,1,0.7596682920120656,,,,,,,,,,,,,,,,,,,,,,,,,,,,,,,,,,,,104,002,2021_Sep_29_1452,joplin1,2021.2.3,59.993400703609076,
_train_cond.csv,0 0 1 0 0 0 0 1 0 0,8,categoryA,f,,,0,1,1,0,2,1,29,5,,,,,,,,,,,,,,,,,,,f,1,1.7277437909506261,,,,,,,,,,,,,,,,,,,,,,,,,,,,,,,,,,,,104,002,2021_Sep_29_1452,joplin1,2021.2.3,59.993400703609076,
_train_cond.csv,1 0 0 0 0 0 0 0 0 1,8,categoryA,f,,,0,1,1,0,2,2,30,0,,,,,,,,,,,,,,,,,,,f,1,0.9296913747675717,,,,,,,,,,,,,,,,,,,,,,,,,,,,,,,,,,,,104,002,2021_Sep_29_1452,joplin1,2021.2.3,59.993400703609076,
_train_cond.csv,0 0 0 1 1 1 1 0 0 0,6,categoryA,f,,,0,1,1,0,2,3,31,3,,,,,,,,,,,,,,,,,,,f,1,1.8597596250474453,,,,,,,,,,,,,,,,,,,,,,,,,,,,,,,,,,,,104,002,2021_Sep_29_1452,joplin1,2021.2.3,59.993400703609076,
_train_cond.csv,1 1 0 1 0 0 1 0 1 1,4,categoryB,j,,,0,1,1,0,2,4,32,9,,,,,,,,,,,,,,,,,,,j,1,0.4955890839919448,,,,,,,,,,,,,,,,,,,,,,,,,,,,,,,,,,,,104,002,2021_Sep_29_1452,joplin1,2021.2.3,59.993400703609076,
_train_cond.csv,0 1 1 1 1 1 1 1 1 0,2,categoryB,j,,,0,1,1,0,2,5,33,7,,,,,,,,,,,,,,,,,,,f,0,0.5779383326880634,,,,,,,,,,,,,,,,,,,,,,,,,,,,,,,,,,,,104,002,2021_Sep_29_1452,joplin1,2021.2.3,59.993400703609076,
_train_cond.csv,1 1 0 1 1 1 1 0 1 1,2,categoryB,j,,,0,1,1,0,2,6,34,12,,,,,,,,,,,,,,,,,,,j,1,0.34479541704058647,,,,,,,,,,,,,,,,,,,,,,,,,,,,,,,,,,,,104,002,2021_Sep_29_1452,joplin1,2021.2.3,59.993400703609076,
_train_cond.csv,1 1 1 0 0 0 0 1 1 1,4,categoryB,j,,,0,1,1,0,2,7,35,10,,,,,,,,,,,,,,,,,,,j,1,0.4820155827328563,,,,,,,,,,,,,,,,,,,,,,,,,,,,,,,,,,,,104,002,2021_Sep_29_1452,joplin1,2021.2.3,59.993400703609076,
_train_cond.csv,0 0 1 0 1 1 0 1 0 0,6,categoryA,f,,,0,1,1,0,2,8,36,2,,,,,,,,,,,,,,,,,,,f,1,0.5261884578503668,,,,,,,,,,,,,,,,,,,,,,,,,,,,,,,,,,,,104,002,2021_Sep_29_1452,joplin1,2021.2.3,59.993400703609076,
_train_cond.csv,0 0 1 1 1 1 1 1 0 0,4,categoryB,j,,,0,1,1,0,2,9,37,13,,,,,,,,,,,,,,,,,,,f,0,0.4396854592487216,,,,,,,,,,,,,,,,,,,,,,,,,,,,,,,,,,,,104,002,2021_Sep_29_1452,joplin1,2021.2.3,59.993400703609076,
_train_cond.csv,0 0 0 1 0 0 1 0 0 0,8,categoryA,f,,,0,1,1,0,2,10,38,4,,,,,,,,,,,,,,,,,,,j,0,0.15622116718441248,,,,,,,,,,,,,,,,,,,,,,,,,,,,,,,,,,,,104,002,2021_Sep_29_1452,joplin1,2021.2.3,59.993400703609076,
_train_cond.csv,1 1 0 0 0 0 0 0 1 1,6,categoryA,f,,,0,1,1,0,2,11,39,6,,,,,,,,,,,,,,,,,,,f,1,0.3794992081820965,,,,,,,,,,,,,,,,,,,,,,,,,,,,,,,,,,,,104,002,2021_Sep_29_1452,joplin1,2021.2.3,59.993400703609076,
_train_cond.csv,1 1 1 0 1 1 0 1 1 1,2,categoryB,j,,,0,1,1,0,2,12,40,11,,,,,,,,,,,,,,,,,,,f,0,0.6116493749432266,,,,,,,,,,,,,,,,,,,,,,,,,,,,,,,,,,,,104,002,2021_Sep_29_1452,joplin1,2021.2.3,59.993400703609076,
_train_cond.csv,1 0 1 1 1 1 1 1 0 1,2,categoryB,j,,,0,1,1,0,2,13,41,8,,,,,,,,,,,,,,,,,,,j,1,0.7211155421100557,,,,,,,,,,,,,,,,,,,,,,,,,,,,,,,,,,,,104,002,2021_Sep_29_1452,joplin1,2021.2.3,59.993400703609076,
_train_cond.csv,,,,,,,0,1,1,0,,,,,,,,,,,,,,,,,,,,,,,,,,space,1.4258684581145644,,,,,,,,,,,,,,,,,,,,,,,,,,,,,,,,,,104,002,2021_Sep_29_1452,joplin1,2021.2.3,59.993400703609076,
_train_cond.csv,0 0 0 1 1 1 1 0 0 0,6,categoryA,f,,,0,2,2,7,0,0,0,3,,,,,,,,,,,,,,,,,,,j,0,1.3035776657052338,,,,,,,,,,,,,,,,,,,,,,,,,,,,,,,,,,,,104,002,2021_Sep_29_1452,joplin1,2021.2.3,59.993400703609076,
_train_cond.csv,0 1 0 0 0 0 0 0 1 0,8,categoryA,f,,,0,2,2,7,0,1,1,1,,,,,,,,,,,,,,,,,,,f,1,0.9138666251674294,,,,,,,,,,,,,,,,,,,,,,,,,,,,,,,,,,,,104,002,2021_Sep_29_1452,joplin1,2021.2.3,59.993400703609076,
_train_cond.csv,0 0 1 1 1 1 1 1 0 0,4,categoryB,j,,,0,2,2,7,0,2,2,13,,,,,,,,,,,,,,,,,,,f,0,0.8522279588505626,,,,,,,,,,,,,,,,,,,,,,,,,,,,,,,,,,,,104,002,2021_Sep_29_1452,joplin1,2021.2.3,59.993400703609076,
_train_cond.csv,1 0 1 1 1 1 1 1 0 1,2,categoryB,j,,,0,2,2,7,0,3,3,8,,,,,,,,,,,,,,,,,,,j,1,0.5209212498739362,,,,,,,,,,,,,,,,,,,,,,,,,,,,,,,,,,,,104,002,2021_Sep_29_1452,joplin1,2021.2.3,59.993400703609076,
_train_cond.csv,1 1 0 1 1 1 1 0 1 1,2,categoryB,j,,,0,2,2,7,0,4,4,12,,,,,,,,,,,,,,,,,,,j,1,0.29046970792114735,,,,,,,,,,,,,,,,,,,,,,,,,,,,,,,,,,,,104,002,2021_Sep_29_1452,joplin1,2021.2.3,59.993400703609076,
_train_cond.csv,0 1 1 1 1 1 1 1 1 0,2,categoryB,j,,,0,2,2,7,0,5,5,7,,,,,,,,,,,,,,,,,,,f,0,0.3815718749538064,,,,,,,,,,,,,,,,,,,,,,,,,,,,,,,,,,,,104,002,2021_Sep_29_1452,joplin1,2021.2.3,59.993400703609076,
_train_cond.csv,0 0 1 0 1 1 0 1 0 0,6,categoryA,f,,,0,2,2,7,0,6,6,2,,,,,,,,,,,,,,,,,,,j,0,0.6697402908466756,,,,,,,,,,,,,,,,,,,,,,,,,,,,,,,,,,,,104,002,2021_Sep_29_1452,joplin1,2021.2.3,59.993400703609076,
_train_cond.csv,1 1 0 1 0 0 1 0 1 1,4,categoryB,j,,,0,2,2,7,0,7,7,9,,,,,,,,,,,,,,,,,,,j,1,0.33688449999317527,,,,,,,,,,,,,,,,,,,,,,,,,,,,,,,,,,,,104,002,2021_Sep_29_1452,joplin1,2021.2.3,59.993400703609076,
_train_cond.csv,1 1 1 0 1 1 0 1 1 1,2,categoryB,j,,,0,2,2,7,0,8,8,11,,,,,,,,,,,,,,,,,,,f,0,0.4261789168231189,,,,,,,,,,,,,,,,,,,,,,,,,,,,,,,,,,,,104,002,2021_Sep_29_1452,joplin1,2021.2.3,59.993400703609076,
_train_cond.csv,1 1 0 0 0 0 0 0 1 1,6,categoryA,f,,,0,2,2,7,0,9,9,6,,,,,,,,,,,,,,,,,,,f,1,1.0235480419360101,,,,,,,,,,,,,,,,,,,,,,,,,,,,,,,,,,,,104,002,2021_Sep_29_1452,joplin1,2021.2.3,59.993400703609076,
_train_cond.csv,0 0 1 0 0 0 0 1 0 0,8,categoryA,f,,,0,2,2,7,0,10,10,5,,,,,,,,,,,,,,,,,,,j,0,0.2531828749924898,,,,,,,,,,,,,,,,,,,,,,,,,,,,,,,,,,,,104,002,2021_Sep_29_1452,joplin1,2021.2.3,59.993400703609076,
_train_cond.csv,1 1 1 0 0 0 0 1 1 1,4,categoryB,j,,,0,2,2,7,0,11,11,10,,,,,,,,,,,,,,,,,,,j,1,0.3290595840662718,,,,,,,,,,,,,,,,,,,,,,,,,,,,,,,,,,,,104,002,2021_Sep_29_1452,joplin1,2021.2.3,59.993400703609076,
_train_cond.csv,0 0 0 1 0 0 1 0 0 0,8,categoryA,f,,,0,2,2,7,0,12,12,4,,,,,,,,,,,,,,,,,,,j,0,0.3702602502889931,,,,,,,,,,,,,,,,,,,,,,,,,,,,,,,,,,,,104,002,2021_Sep_29_1452,joplin1,2021.2.3,59.993400703609076,
_train_cond.csv,1 0 0 0 0 0 0 0 0 1,8,categoryA,f,,,0,2,2,7,0,13,13,0,,,,,,,,,,,,,,,,,,,f,1,0.2969497502781451,,,,,,,,,,,,,,,,,,,,,,,,,,,,,,,,,,,,104,002,2021_Sep_29_1452,joplin1,2021.2.3,59.993400703609076,
_train_cond.csv,0 1 0 0 0 0 0 0 1 0,8,categoryA,f,,,0,2,2,7,1,0,14,1,,,,,,,,,,,,,,,,,,,j,0,0.49171125004068017,,,,,,,,,,,,,,,,,,,,,,,,,,,,,,,,,,,,104,002,2021_Sep_29_1452,joplin1,2021.2.3,59.993400703609076,
_train_cond.csv,1 0 0 0 0 0 0 0 0 1,8,categoryA,f,,,0,2,2,7,1,1,15,0,,,,,,,,,,,,,,,,,,,j,0,0.3351782504469156,,,,,,,,,,,,,,,,,,,,,,,,,,,,,,,,,,,,104,002,2021_Sep_29_1452,joplin1,2021.2.3,59.993400703609076,
_train_cond.csv,0 0 0 1 1 1 1 0 0 0,6,categoryA,f,,,0,2,2,7,1,2,16,3,,,,,,,,,,,,,,,,,,,f,1,0.46373979235067964,,,,,,,,,,,,,,,,,,,,,,,,,,,,,,,,,,,,104,002,2021_Sep_29_1452,joplin1,2021.2.3,59.993400703609076,
_train_cond.csv,1 1 1 0 1 1 0 1 1 1,2,categoryB,j,,,0,2,2,7,1,3,17,11,,,,,,,,,,,,,,,,,,,f,0,0.11701229214668274,,,,,,,,,,,,,,,,,,,,,,,,,,,,,,,,,,,,104,002,2021_Sep_29_1452,joplin1,2021.2.3,59.993400703609076,
_train_cond.csv,0 0 1 1 1 1 1 1 0 0,4,categoryB,j,,,0,2,2,7,1,4,18,13,,,,,,,,,,,,,,,,,,,f,0,0.19057966582477093,,,,,,,,,,,,,,,,,,,,,,,,,,,,,,,,,,,,104,002,2021_Sep_29_1452,joplin1,2021.2.3,59.993400703609076,
_train_cond.csv,0 1 1 1 1 1 1 1 1 0,2,categoryB,j,,,0,2,2,7,1,5,19,7,,,,,,,,,,,,,,,,,,,j,1,0.07018729159608483,,,,,,,,,,,,,,,,,,,,,,,,,,,,,,,,,,,,104,002,2021_Sep_29_1452,joplin1,2021.2.3,59.993400703609076,
_train_cond.csv,1 0 1 1 1 1 1 1 0 1,2,categoryB,j,,,0,2,2,7,1,6,20,8,,,,,,,,,,,,,,,,,,,f,0,0.12107629189267755,,,,,,,,,,,,,,,,,,,,,,,,,,,,,,,,,,,,104,002,2021_Sep_29_1452,joplin1,2021.2.3,59.993400703609076,
_train_cond.csv,1 1 1 0 0 0 0 1 1 1,4,categoryB,j,,,0,2,2,7,1,7,21,10,,,,,,,,,,,,,,,,,,,j,1,0.14744741609320045,,,,,,,,,,,,,,,,,,,,,,,,,,,,,,,,,,,,104,002,2021_Sep_29_1452,joplin1,2021.2.3,59.993400703609076,
_train_cond.csv,1 1 0 0 0 0 0 0 1 1,6,categoryA,f,,,0,2,2,7,1,8,22,6,,,,,,,,,,,,,,,,,,,j,0,0.07555991597473621,,,,,,,,,,,,,,,,,,,,,,,,,,,,,,,,,,,,104,002,2021_Sep_29_1452,joplin1,2021.2.3,59.993400703609076,
_train_cond.csv,1 1 0 1 0 0 1 0 1 1,4,categoryB,j,,,0,2,2,7,1,9,23,9,,,,,,,,,,,,,,,,,,,f,0,0.04735016683116555,,,,,,,,,,,,,,,,,,,,,,,,,,,,,,,,,,,,104,002,2021_Sep_29_1452,joplin1,2021.2.3,59.993400703609076,
_train_cond.csv,1 1 0 1 1 1 1 0 1 1,2,categoryB,j,,,0,2,2,7,1,10,24,12,,,,,,,,,,,,,,,,,,,j,1,0.500144749879837,,,,,,,,,,,,,,,,,,,,,,,,,,,,,,,,,,,,104,002,2021_Sep_29_1452,joplin1,2021.2.3,59.993400703609076,
_train_cond.csv,0 0 1 0 0 0 0 1 0 0,8,categoryA,f,,,0,2,2,7,1,11,25,5,,,,,,,,,,,,,,,,,,,j,0,0.24668783321976662,,,,,,,,,,,,,,,,,,,,,,,,,,,,,,,,,,,,104,002,2021_Sep_29_1452,joplin1,2021.2.3,59.993400703609076,
_train_cond.csv,0 0 0 1 0 0 1 0 0 0,8,categoryA,f,,,0,2,2,7,1,12,26,4,,,,,,,,,,,,,,,,,,,f,1,0.515406833961606,,,,,,,,,,,,,,,,,,,,,,,,,,,,,,,,,,,,104,002,2021_Sep_29_1452,joplin1,2021.2.3,59.993400703609076,
_train_cond.csv,0 0 1 0 1 1 0 1 0 0,6,categoryA,f,,,0,2,2,7,1,13,27,2,,,,,,,,,,,,,,,,,,,j,0,0.17403091583400965,,,,,,,,,,,,,,,,,,,,,,,,,,,,,,,,,,,,104,002,2021_Sep_29_1452,joplin1,2021.2.3,59.993400703609076,
_train_cond.csv,0 1 0 0 0 0 0 0 1 0,8,categoryA,f,,,0,2,2,7,2,0,28,1,,,,,,,,,,,,,,,,,,,f,1,0.10160483280196786,,,,,,,,,,,,,,,,,,,,,,,,,,,,,,,,,,,,104,002,2021_Sep_29_1452,joplin1,2021.2.3,59.993400703609076,
_train_cond.csv,1 1 1 0 1 1 0 1 1 1,2,categoryB,j,,,0,2,2,7,2,1,29,11,,,,,,,,,,,,,,,,,,,j,1,0.4080357919447124,,,,,,,,,,,,,,,,,,,,,,,,,,,,,,,,,,,,104,002,2021_Sep_29_1452,joplin1,2021.2.3,59.993400703609076,
_train_cond.csv,0 0 0 1 1 1 1 0 0 0,6,categoryA,f,,,0,2,2,7,2,2,30,3,,,,,,,,,,,,,,,,,,,j,0,0.4620765829458833,,,,,,,,,,,,,,,,,,,,,,,,,,,,,,,,,,,,104,002,2021_Sep_29_1452,joplin1,2021.2.3,59.993400703609076,
_train_cond.csv,1 0 0 0 0 0 0 0 0 1,8,categoryA,f,,,0,2,2,7,2,3,31,0,,,,,,,,,,,,,,,,,,,f,1,0.4028111668303609,,,,,,,,,,,,,,,,,,,,,,,,,,,,,,,,,,,,104,002,2021_Sep_29_1452,joplin1,2021.2.3,59.993400703609076,
_train_cond.csv,1 1 0 1 1 1 1 0 1 1,2,categoryB,j,,,0,2,2,7,2,4,32,12,,,,,,,,,,,,,,,,,,,f,0,0.7608504169620574,,,,,,,,,,,,,,,,,,,,,,,,,,,,,,,,,,,,104,002,2021_Sep_29_1452,joplin1,2021.2.3,59.993400703609076,
_train_cond.csv,0 1 1 1 1 1 1 1 1 0,2,categoryB,j,,,0,2,2,7,2,5,33,7,,,,,,,,,,,,,,,,,,,f,0,0.2731894999742508,,,,,,,,,,,,,,,,,,,,,,,,,,,,,,,,,,,,104,002,2021_Sep_29_1452,joplin1,2021.2.3,59.993400703609076,
_train_cond.csv,1 1 0 0 0 0 0 0 1 1,6,categoryA,f,,,0,2,2,7,2,6,34,6,,,,,,,,,,,,,,,,,,,j,0,0.2449257499538362,,,,,,,,,,,,,,,,,,,,,,,,,,,,,,,,,,,,104,002,2021_Sep_29_1452,joplin1,2021.2.3,59.993400703609076,
_train_cond.csv,0 0 0 1 0 0 1 0 0 0,8,categoryA,f,,,0,2,2,7,2,7,35,4,,,,,,,,,,,,,,,,,,,j,0,0.28218041732907295,,,,,,,,,,,,,,,,,,,,,,,,,,,,,,,,,,,,104,002,2021_Sep_29_1452,joplin1,2021.2.3,59.993400703609076,
_train_cond.csv,1 1 0 1 0 0 1 0 1 1,4,categoryB,j,,,0,2,2,7,2,8,36,9,,,,,,,,,,,,,,,,,,,j,1,0.14233325002714992,,,,,,,,,,,,,,,,,,,,,,,,,,,,,,,,,,,,104,002,2021_Sep_29_1452,joplin1,2021.2.3,59.993400703609076,
_train_cond.csv,0 0 1 0 0 0 0 1 0 0,8,categoryA,f,,,0,2,2,7,2,9,37,5,,,,,,,,,,,,,,,,,,,f,1,0.6547321667894721,,,,,,,,,,,,,,,,,,,,,,,,,,,,,,,,,,,,104,002,2021_Sep_29_1452,joplin1,2021.2.3,59.993400703609076,
_train_cond.csv,0 0 1 0 1 1 0 1 0 0,6,categoryA,f,,,0,2,2,7,2,10,38,2,,,,,,,,,,,,,,,,,,,j,0,0.3158867498859763,,,,,,,,,,,,,,,,,,,,,,,,,,,,,,,,,,,,104,002,2021_Sep_29_1452,joplin1,2021.2.3,59.993400703609076,
_train_cond.csv,1 0 1 1 1 1 1 1 0 1,2,categoryB,j,,,0,2,2,7,2,11,39,8,,,,,,,,,,,,,,,,,,,j,1,0.27660829201340675,,,,,,,,,,,,,,,,,,,,,,,,,,,,,,,,,,,,104,002,2021_Sep_29_1452,joplin1,2021.2.3,59.993400703609076,
_train_cond.csv,1 1 1 0 0 0 0 1 1 1,4,categoryB,j,,,0,2,2,7,2,12,40,10,,,,,,,,,,,,,,,,,,,f,0,0.35237829200923443,,,,,,,,,,,,,,,,,,,,,,,,,,,,,,,,,,,,104,002,2021_Sep_29_1452,joplin1,2021.2.3,59.993400703609076,
_train_cond.csv,0 0 1 1 1 1 1 1 0 0,4,categoryB,j,,,0,2,2,7,2,13,41,13,,,,,,,,,,,,,,,,,,,j,1,0.367441332899034,,,,,,,,,,,,,,,,,,,,,,,,,,,,,,,,,,,,104,002,2021_Sep_29_1452,joplin1,2021.2.3,59.993400703609076,
_train_cond.csv,,,,,,,0,2,2,7,,,,,,,,,,,,,,,,,,,,,,,,,,space,6.150987250264734,,,,,,,,,,,,,,,,,,,,,,,,,,,,,,,,,,104,002,2021_Sep_29_1452,joplin1,2021.2.3,59.993400703609076,
_train_cond.csv,0 0 0 1 1 1 1 0 0 0,6,categoryA,f,,,0,3,3,6,0,0,0,3,,,,,,,,,,,,,,,,,,,j,0,0.32007491728290915,,,,,,,,,,,,,,,,,,,,,,,,,,,,,,,,,,,,104,002,2021_Sep_29_1452,joplin1,2021.2.3,59.993400703609076,
_train_cond.csv,0 0 1 1 1 1 1 1 0 0,4,categoryB,j,,,0,3,3,6,0,1,1,13,,,,,,,,,,,,,,,,,,,j,1,0.20144695788621902,,,,,,,,,,,,,,,,,,,,,,,,,,,,,,,,,,,,104,002,2021_Sep_29_1452,joplin1,2021.2.3,59.993400703609076,
_train_cond.csv,1 1 0 1 0 0 1 0 1 1,4,categoryB,j,,,0,3,3,6,0,2,2,9,,,,,,,,,,,,,,,,,,,f,0,0.3364774170331657,,,,,,,,,,,,,,,,,,,,,,,,,,,,,,,,,,,,104,002,2021_Sep_29_1452,joplin1,2021.2.3,59.993400703609076,
_train_cond.csv,0 1 1 1 1 1 1 1 1 0,2,categoryB,j,,,0,3,3,6,0,3,3,7,,,,,,,,,,,,,,,,,,,f,0,0.5530467908829451,,,,,,,,,,,,,,,,,,,,,,,,,,,,,,,,,,,,104,002,2021_Sep_29_1452,joplin1,2021.2.3,59.993400703609076,
_train_cond.csv,0 1 0 0 0 0 0 0 1 0,8,categoryA,f,,,0,3,3,6,0,4,4,1,,,,,,,,,,,,,,,,,,,j,0,0.04965529218316078,,,,,,,,,,,,,,,,,,,,,,,,,,,,,,,,,,,,104,002,2021_Sep_29_1452,joplin1,2021.2.3,59.993400703609076,
_train_cond.csv,1 0 1 1 1 1 1 1 0 1,2,categoryB,j,,,0,3,3,6,0,5,5,8,,,,,,,,,,,,,,,,,,,j,1,0.44534533424302936,,,,,,,,,,,,,,,,,,,,,,,,,,,,,,,,,,,,104,002,2021_Sep_29_1452,joplin1,2021.2.3,59.993400703609076,
_train_cond.csv,1 0 0 0 0 0 0 0 0 1,8,categoryA,f,,,0,3,3,6,0,6,6,0,,,,,,,,,,,,,,,,,,,f,1,0.15450712526217103,,,,,,,,,,,,,,,,,,,,,,,,,,,,,,,,,,,,104,002,2021_Sep_29_1452,joplin1,2021.2.3,59.993400703609076,
_train_cond.csv,0 0 1 0 0 0 0 1 0 0,8,categoryA,f,,,0,3,3,6,0,7,7,5,,,,,,,,,,,,,,,,,,,f,1,0.09134679241105914,,,,,,,,,,,,,,,,,,,,,,,,,,,,,,,,,,,,104,002,2021_Sep_29_1452,joplin1,2021.2.3,59.993400703609076,
_train_cond.csv,0 0 0 1 0 0 1 0 0 0,8,categoryA,f,,,0,3,3,6,0,8,8,4,,,,,,,,,,,,,,,,,,,f,1,0.3188821249641478,,,,,,,,,,,,,,,,,,,,,,,,,,,,,,,,,,,,104,002,2021_Sep_29_1452,joplin1,2021.2.3,59.993400703609076,
_train_cond.csv,1 1 0 1 1 1 1 0 1 1,2,categoryB,j,,,0,3,3,6,0,9,9,12,,,,,,,,,,,,,,,,,,,j,1,0.33026479184627533,,,,,,,,,,,,,,,,,,,,,,,,,,,,,,,,,,,,104,002,2021_Sep_29_1452,joplin1,2021.2.3,59.993400703609076,
_train_cond.csv,1 1 1 0 0 0 0 1 1 1,4,categoryB,j,,,0,3,3,6,0,10,10,10,,,,,,,,,,,,,,,,,,,f,0,0.003255832940340042,,,,,,,,,,,,,,,,,,,,,,,,,,,,,,,,,,,,104,002,2021_Sep_29_1452,joplin1,2021.2.3,59.993400703609076,
_train_cond.csv,1 1 1 0 1 1 0 1 1 1,2,categoryB,j,,,0,3,3,6,0,11,11,11,,,,,,,,,,,,,,,,,,,j,1,0.4569505420513451,,,,,,,,,,,,,,,,,,,,,,,,,,,,,,,,,,,,104,002,2021_Sep_29_1452,joplin1,2021.2.3,59.993400703609076,
_train_cond.csv,1 1 0 0 0 0 0 0 1 1,6,categoryA,f,,,0,3,3,6,0,12,12,6,,,,,,,,,,,,,,,,,,,f,1,0.7490083747543395,,,,,,,,,,,,,,,,,,,,,,,,,,,,,,,,,,,,104,002,2021_Sep_29_1452,joplin1,2021.2.3,59.993400703609076,
_train_cond.csv,0 0 1 0 1 1 0 1 0 0,6,categoryA,f,,,0,3,3,6,0,13,13,2,,,,,,,,,,,,,,,,,,,j,0,0.2616074997931719,,,,,,,,,,,,,,,,,,,,,,,,,,,,,,,,,,,,104,002,2021_Sep_29_1452,joplin1,2021.2.3,59.993400703609076,
_train_cond.csv,1 1 0 0 0 0 0 0 1 1,6,categoryA,f,,,0,3,3,6,1,0,14,6,,,,,,,,,,,,,,,,,,,f,1,0.39349854178726673,,,,,,,,,,,,,,,,,,,,,,,,,,,,,,,,,,,,104,002,2021_Sep_29_1452,joplin1,2021.2.3,59.993400703609076,
_train_cond.csv,1 1 1 0 1 1 0 1 1 1,2,categoryB,j,,,0,3,3,6,1,1,15,11,,,,,,,,,,,,,,,,,,,j,1,0.8162887920625508,,,,,,,,,,,,,,,,,,,,,,,,,,,,,,,,,,,,104,002,2021_Sep_29_1452,joplin1,2021.2.3,59.993400703609076,
_train_cond.csv,0 0 0 1 1 1 1 0 0 0,6,categoryA,f,,,0,3,3,6,1,2,16,3,,,,,,,,,,,,,,,,,,,j,0,0.18991262512281537,,,,,,,,,,,,,,,,,,,,,,,,,,,,,,,,,,,,104,002,2021_Sep_29_1452,joplin1,2021.2.3,59.993400703609076,
_train_cond.csv,0 0 1 0 1 1 0 1 0 0,6,categoryA,f,,,0,3,3,6,1,3,17,2,,,,,,,,,,,,,,,,,,,f,1,0.4445662498474121,,,,,,,,,,,,,,,,,,,,,,,,,,,,,,,,,,,,104,002,2021_Sep_29_1452,joplin1,2021.2.3,59.993400703609076,
_train_cond.csv,0 0 1 1 1 1 1 1 0 0,4,categoryB,j,,,0,3,3,6,1,4,18,13,,,,,,,,,,,,,,,,,,,f,0,0.26570116728544235,,,,,,,,,,,,,,,,,,,,,,,,,,,,,,,,,,,,104,002,2021_Sep_29_1452,joplin1,2021.2.3,59.993400703609076,
_train_cond.csv,1 1 1 0 0 0 0 1 1 1,4,categoryB,j,,,0,3,3,6,1,5,19,10,,,,,,,,,,,,,,,,,,,j,1,0.014245165977627039,,,,,,,,,,,,,,,,,,,,,,,,,,,,,,,,,,,,104,002,2021_Sep_29_1452,joplin1,2021.2.3,59.993400703609076,
_train_cond.csv,1 0 1 1 1 1 1 1 0 1,2,categoryB,j,,,0,3,3,6,1,6,20,8,,,,,,,,,,,,,,,,,,,f,0,0.18815533304587007,,,,,,,,,,,,,,,,,,,,,,,,,,,,,,,,,,,,104,002,2021_Sep_29_1452,joplin1,2021.2.3,59.993400703609076,
_train_cond.csv,1 1 0 1 1 1 1 0 1 1,2,categoryB,j,,,0,3,3,6,1,7,21,12,,,,,,,,,,,,,,,,,,,j,1,0.2507573342882097,,,,,,,,,,,,,,,,,,,,,,,,,,,,,,,,,,,,104,002,2021_Sep_29_1452,joplin1,2021.2.3,59.993400703609076,
_train_cond.csv,0 0 1 0 0 0 0 1 0 0,8,categoryA,f,,,0,3,3,6,1,8,22,5,,,,,,,,,,,,,,,,,,,f,1,0.5762372920289636,,,,,,,,,,,,,,,,,,,,,,,,,,,,,,,,,,,,104,002,2021_Sep_29_1452,joplin1,2021.2.3,59.993400703609076,
_train_cond.csv,1 1 0 1 0 0 1 0 1 1,4,categoryB,j,,,0,3,3,6,1,9,23,9,,,,,,,,,,,,,,,,,,,j,1,0.3434193329885602,,,,,,,,,,,,,,,,,,,,,,,,,,,,,,,,,,,,104,002,2021_Sep_29_1452,joplin1,2021.2.3,59.993400703609076,
_train_cond.csv,0 1 1 1 1 1 1 1 1 0,2,categoryB,j,,,0,3,3,6,1,10,24,7,,,,,,,,,,,,,,,,,,,j,1,0.5833322079852223,,,,,,,,,,,,,,,,,,,,,,,,,,,,,,,,,,,,104,002,2021_Sep_29_1452,joplin1,2021.2.3,59.993400703609076,
_train_cond.csv,0 1 0 0 0 0 0 0 1 0,8,categoryA,f,,,0,3,3,6,1,11,25,1,,,,,,,,,,,,,,,,,,,f,1,0.20816700020805,,,,,,,,,,,,,,,,,,,,,,,,,,,,,,,,,,,,104,002,2021_Sep_29_1452,joplin1,2021.2.3,59.993400703609076,
_train_cond.csv,0 0 0 1 0 0 1 0 0 0,8,categoryA,f,,,0,3,3,6,1,12,26,4,,,,,,,,,,,,,,,,,,,f,1,0.09513645805418491,,,,,,,,,,,,,,,,,,,,,,,,,,,,,,,,,,,,104,002,2021_Sep_29_1452,joplin1,2021.2.3,59.993400703609076,
_train_cond.csv,1 0 0 0 0 0 0 0 0 1,8,categoryA,f,,,0,3,3,6,1,13,27,0,,,,,,,,,,,,,,,,,,,j,0,0.3936190833337605,,,,,,,,,,,,,,,,,,,,,,,,,,,,,,,,,,,,104,002,2021_Sep_29_1452,joplin1,2021.2.3,59.993400703609076,
_train_cond.csv,0 1 1 1 1 1 1 1 1 0,2,categoryB,j,,,0,3,3,6,2,0,28,7,,,,,,,,,,,,,,,,,,,j,1,0.43973333295434713,,,,,,,,,,,,,,,,,,,,,,,,,,,,,,,,,,,,104,002,2021_Sep_29_1452,joplin1,2021.2.3,59.993400703609076,
_train_cond.csv,0 0 1 0 0 0 0 1 0 0,8,categoryA,f,,,0,3,3,6,2,1,29,5,,,,,,,,,,,,,,,,,,,j,0,0.4123183749616146,,,,,,,,,,,,,,,,,,,,,,,,,,,,,,,,,,,,104,002,2021_Sep_29_1452,joplin1,2021.2.3,59.993400703609076,
_train_cond.csv,1 0 0 0 0 0 0 0 0 1,8,categoryA,f,,,0,3,3,6,2,2,30,0,,,,,,,,,,,,,,,,,,,j,0,0.3302621250040829,,,,,,,,,,,,,,,,,,,,,,,,,,,,,,,,,,,,104,002,2021_Sep_29_1452,joplin1,2021.2.3,59.993400703609076,
_train_cond.csv,0 0 1 0 1 1 0 1 0 0,6,categoryA,f,,,0,3,3,6,2,3,31,2,,,,,,,,,,,,,,,,,,,f,1,0.32428095769137144,,,,,,,,,,,,,,,,,,,,,,,,,,,,,,,,,,,,104,002,2021_Sep_29_1452,joplin1,2021.2.3,59.993400703609076,
_train_cond.csv,1 1 1 0 0 0 0 1 1 1,4,categoryB,j,,,0,3,3,6,2,4,32,10,,,,,,,,,,,,,,,,,,,j,1,0.39064779225736856,,,,,,,,,,,,,,,,,,,,,,,,,,,,,,,,,,,,104,002,2021_Sep_29_1452,joplin1,2021.2.3,59.993400703609076,
_train_cond.csv,1 1 0 1 1 1 1 0 1 1,2,categoryB,j,,,0,3,3,6,2,5,33,12,,,,,,,,,,,,,,,,,,,f,0,0.4296495830640197,,,,,,,,,,,,,,,,,,,,,,,,,,,,,,,,,,,,104,002,2021_Sep_29_1452,joplin1,2021.2.3,59.993400703609076,
_train_cond.csv,0 0 0 1 1 1 1 0 0 0,6,categoryA,f,,,0,3,3,6,2,6,34,3,,,,,,,,,,,,,,,,,,,f,1,0.6030227919109166,,,,,,,,,,,,,,,,,,,,,,,,,,,,,,,,,,,,104,002,2021_Sep_29_1452,joplin1,2021.2.3,59.993400703609076,
_train_cond.csv,0 0 0 1 0 0 1 0 0 0,8,categoryA,f,,,0,3,3,6,2,7,35,4,,,,,,,,,,,,,,,,,,,j,0,0.34496558364480734,,,,,,,,,,,,,,,,,,,,,,,,,,,,,,,,,,,,104,002,2021_Sep_29_1452,joplin1,2021.2.3,59.993400703609076,
_train_cond.csv,1 1 0 0 0 0 0 0 1 1,6,categoryA,f,,,0,3,3,6,2,8,36,6,,,,,,,,,,,,,,,,,,,f,1,0.06629179138690233,,,,,,,,,,,,,,,,,,,,,,,,,,,,,,,,,,,,104,002,2021_Sep_29_1452,joplin1,2021.2.3,59.993400703609076,
_train_cond.csv,1 1 1 0 1 1 0 1 1 1,2,categoryB,j,,,0,3,3,6,2,9,37,11,,,,,,,,,,,,,,,,,,,f,0,0.5581094580702484,,,,,,,,,,,,,,,,,,,,,,,,,,,,,,,,,,,,104,002,2021_Sep_29_1452,joplin1,2021.2.3,59.993400703609076,
_train_cond.csv,1 1 0 1 0 0 1 0 1 1,4,categoryB,j,,,0,3,3,6,2,10,38,9,,,,,,,,,,,,,,,,,,,j,1,0.613753582816571,,,,,,,,,,,,,,,,,,,,,,,,,,,,,,,,,,,,104,002,2021_Sep_29_1452,joplin1,2021.2.3,59.993400703609076,
_train_cond.csv,0 0 1 1 1 1 1 1 0 0,4,categoryB,j,,,0,3,3,6,2,11,39,13,,,,,,,,,,,,,,,,,,,j,1,0.30882650008425117,,,,,,,,,,,,,,,,,,,,,,,,,,,,,,,,,,,,104,002,2021_Sep_29_1452,joplin1,2021.2.3,59.993400703609076,
_train_cond.csv,1 0 1 1 1 1 1 1 0 1,2,categoryB,j,,,0,3,3,6,2,12,40,8,,,,,,,,,,,,,,,,,,,j,1,0.3435247503221035,,,,,,,,,,,,,,,,,,,,,,,,,,,,,,,,,,,,104,002,2021_Sep_29_1452,joplin1,2021.2.3,59.993400703609076,
_train_cond.csv,0 1 0 0 0 0 0 0 1 0,8,categoryA,f,,,0,3,3,6,2,13,41,1,,,,,,,,,,,,,,,,,,,f,1,0.28976033302024007,,,,,,,,,,,,,,,,,,,,,,,,,,,,,,,,,,,,104,002,2021_Sep_29_1452,joplin1,2021.2.3,59.993400703609076,
_train_cond.csv,,,,,,,0,3,3,6,,,,,,,,,,,,,,,,,,,,,,,,,,space,28.979262749664485,,,,,,,,,,,,,,,,,,,,,,,,,,,,,,,,,,104,002,2021_Sep_29_1452,joplin1,2021.2.3,59.993400703609076,
_train_cond.csv,0 0 1 0 0 0 0 1 0 0,8,categoryA,f,,,0,4,4,2,0,0,0,5,,,,,,,,,,,,,,,,,,,f,1,0.5959332077763975,,,,,,,,,,,,,,,,,,,,,,,,,,,,,,,,,,,,104,002,2021_Sep_29_1452,joplin1,2021.2.3,59.993400703609076,
_train_cond.csv,0 1 1 1 1 1 1 1 1 0,2,categoryB,j,,,0,4,4,2,0,1,1,7,,,,,,,,,,,,,,,,,,,j,1,0.4494472499936819,,,,,,,,,,,,,,,,,,,,,,,,,,,,,,,,,,,,104,002,2021_Sep_29_1452,joplin1,2021.2.3,59.993400703609076,
_train_cond.csv,0 1 0 0 0 0 0 0 1 0,8,categoryA,f,,,0,4,4,2,0,2,2,1,,,,,,,,,,,,,,,,,,,f,1,0.5028065829537809,,,,,,,,,,,,,,,,,,,,,,,,,,,,,,,,,,,,104,002,2021_Sep_29_1452,joplin1,2021.2.3,59.993400703609076,
_train_cond.csv,1 1 0 1 0 0 1 0 1 1,4,categoryB,j,,,0,4,4,2,0,3,3,9,,,,,,,,,,,,,,,,,,,f,0,0.08928862493485212,,,,,,,,,,,,,,,,,,,,,,,,,,,,,,,,,,,,104,002,2021_Sep_29_1452,joplin1,2021.2.3,59.993400703609076,
_train_cond.csv,1 1 1 0 1 1 0 1 1 1,2,categoryB,j,,,0,4,4,2,0,4,4,11,,,,,,,,,,,,,,,,,,,j,1,0.35621270816773176,,,,,,,,,,,,,,,,,,,,,,,,,,,,,,,,,,,,104,002,2021_Sep_29_1452,joplin1,2021.2.3,59.993400703609076,
_train_cond.csv,0 0 1 0 1 1 0 1 0 0,6,categoryA,f,,,0,4,4,2,0,5,5,2,,,,,,,,,,,,,,,,,,,j,0,0.3006987920962274,,,,,,,,,,,,,,,,,,,,,,,,,,,,,,,,,,,,104,002,2021_Sep_29_1452,joplin1,2021.2.3,59.993400703609076,
_train_cond.csv,1 0 0 0 0 0 0 0 0 1,8,categoryA,f,,,0,4,4,2,0,6,6,0,,,,,,,,,,,,,,,,,,,f,1,0.08753791591152549,,,,,,,,,,,,,,,,,,,,,,,,,,,,,,,,,,,,104,002,2021_Sep_29_1452,joplin1,2021.2.3,59.993400703609076,
_train_cond.csv,0 0 0 1 0 0 1 0 0 0,8,categoryA,f,,,0,4,4,2,0,7,7,4,,,,,,,,,,,,,,,,,,,j,0,0.2588794999755919,,,,,,,,,,,,,,,,,,,,,,,,,,,,,,,,,,,,104,002,2021_Sep_29_1452,joplin1,2021.2.3,59.993400703609076,
_train_cond.csv,0 0 1 1 1 1 1 1 0 0,4,categoryB,j,,,0,4,4,2,0,8,8,13,,,,,,,,,,,,,,,,,,,f,0,0.11086754081770778,,,,,,,,,,,,,,,,,,,,,,,,,,,,,,,,,,,,104,002,2021_Sep_29_1452,joplin1,2021.2.3,59.993400703609076,
_train_cond.csv,1 1 0 0 0 0 0 0 1 1,6,categoryA,f,,,0,4,4,2,0,9,9,6,,,,,,,,,,,,,,,,,,,f,1,0.5290056662634015,,,,,,,,,,,,,,,,,,,,,,,,,,,,,,,,,,,,104,002,2021_Sep_29_1452,joplin1,2021.2.3,59.993400703609076,
_train_cond.csv,1 1 1 0 0 0 0 1 1 1,4,categoryB,j,,,0,4,4,2,0,10,10,10,,,,,,,,,,,,,,,,,,,f,0,1.0502650002017617,,,,,,,,,,,,,,,,,,,,,,,,,,,,,,,,,,,,104,002,2021_Sep_29_1452,joplin1,2021.2.3,59.993400703609076,
_train_cond.csv,1 0 1 1 1 1 1 1 0 1,2,categoryB,j,,,0,4,4,2,0,11,11,8,,,,,,,,,,,,,,,,,,,j,1,0.24663137504830956,,,,,,,,,,,,,,,,,,,,,,,,,,,,,,,,,,,,104,002,2021_Sep_29_1452,joplin1,2021.2.3,59.993400703609076,
_train_cond.csv,0 0 0 1 1 1 1 0 0 0,6,categoryA,f,,,0,4,4,2,0,12,12,3,,,,,,,,,,,,,,,,,,,j,0,0.2752685002051294,,,,,,,,,,,,,,,,,,,,,,,,,,,,,,,,,,,,104,002,2021_Sep_29_1452,joplin1,2021.2.3,59.993400703609076,
_train_cond.csv,1 1 0 1 1 1 1 0 1 1,2,categoryB,j,,,0,4,4,2,0,13,13,12,,,,,,,,,,,,,,,,,,,f,0,0.23051470890641212,,,,,,,,,,,,,,,,,,,,,,,,,,,,,,,,,,,,104,002,2021_Sep_29_1452,joplin1,2021.2.3,59.993400703609076,
_train_cond.csv,0 0 0 1 1 1 1 0 0 0,6,categoryA,f,,,0,4,4,2,1,0,14,3,,,,,,,,,,,,,,,,,,,j,0,0.4922705418430269,,,,,,,,,,,,,,,,,,,,,,,,,,,,,,,,,,,,104,002,2021_Sep_29_1452,joplin1,2021.2.3,59.993400703609076,
_train_cond.csv,0 0 1 0 1 1 0 1 0 0,6,categoryA,f,,,0,4,4,2,1,1,15,2,,,,,,,,,,,,,,,,,,,f,1,0.006855332758277655,,,,,,,,,,,,,,,,,,,,,,,,,,,,,,,,,,,,104,002,2021_Sep_29_1452,joplin1,2021.2.3,59.993400703609076,
_train_cond.csv,1 1 1 0 0 0 0 1 1 1,4,categoryB,j,,,0,4,4,2,1,2,16,10,,,,,,,,,,,,,,,,,,,None,0,,,,,,,,,,,,,,,,,,,,,,,,,,,,,,,,,,,,,104,002,2021_Sep_29_1452,joplin1,2021.2.3,59.993400703609076,
_train_cond.csv,1 1 0 1 0 0 1 0 1 1,4,categoryB,j,,,0,4,4,2,1,3,17,9,,,,,,,,,,,,,,,,,,,f,0,0.28428187500685453,,,,,,,,,,,,,,,,,,,,,,,,,,,,,,,,,,,,104,002,2021_Sep_29_1452,joplin1,2021.2.3,59.993400703609076,
_train_cond.csv,1 1 0 0 0 0 0 0 1 1,6,categoryA,f,,,0,4,4,2,1,4,18,6,,,,,,,,,,,,,,,,,,,j,0,0.19959375029429793,,,,,,,,,,,,,,,,,,,,,,,,,,,,,,,,,,,,104,002,2021_Sep_29_1452,joplin1,2021.2.3,59.993400703609076,
_train_cond.csv,0 0 1 1 1 1 1 1 0 0,4,categoryB,j,,,0,4,4,2,1,5,19,13,,,,,,,,,,,,,,,,,,,f,0,0.4541552923619747,,,,,,,,,,,,,,,,,,,,,,,,,,,,,,,,,,,,104,002,2021_Sep_29_1452,joplin1,2021.2.3,59.993400703609076,
_train_cond.csv,0 1 0 0 0 0 0 0 1 0,8,categoryA,f,,,0,4,4,2,1,6,20,1,,,,,,,,,,,,,,,,,,,None,0,,,,,,,,,,,,,,,,,,,,,,,,,,,,,,,,,,,,,104,002,2021_Sep_29_1452,joplin1,2021.2.3,59.993400703609076,
_train_cond.csv,1 0 0 0 0 0 0 0 0 1,8,categoryA,f,,,0,4,4,2,1,7,21,0,,,,,,,,,,,,,,,,,,,j,0,0.22617620788514614,,,,,,,,,,,,,,,,,,,,,,,,,,,,,,,,,,,,104,002,2021_Sep_29_1452,joplin1,2021.2.3,59.993400703609076,
_train_cond.csv,1 1 1 0 1 1 0 1 1 1,2,categoryB,j,,,0,4,4,2,1,8,22,11,,,,,,,,,,,,,,,,,,,f,0,0.06350770918652415,,,,,,,,,,,,,,,,,,,,,,,,,,,,,,,,,,,,104,002,2021_Sep_29_1452,joplin1,2021.2.3,59.993400703609076,
_train_cond.csv,0 1 1 1 1 1 1 1 1 0,2,categoryB,j,,,0,4,4,2,1,9,23,7,,,,,,,,,,,,,,,,,,,j,1,0.20409237500280142,,,,,,,,,,,,,,,,,,,,,,,,,,,,,,,,,,,,104,002,2021_Sep_29_1452,joplin1,2021.2.3,59.993400703609076,
_train_cond.csv,1 0 1 1 1 1 1 1 0 1,2,categoryB,j,,,0,4,4,2,1,10,24,8,,,,,,,,,,,,,,,,,,,j,1,0.2656385423615575,,,,,,,,,,,,,,,,,,,,,,,,,,,,,,,,,,,,104,002,2021_Sep_29_1452,joplin1,2021.2.3,59.993400703609076,
_train_cond.csv,1 1 0 1 1 1 1 0 1 1,2,categoryB,j,,,0,4,4,2,1,11,25,12,,,,,,,,,,,,,,,,,,,f,0,0.22200604202225804,,,,,,,,,,,,,,,,,,,,,,,,,,,,,,,,,,,,104,002,2021_Sep_29_1452,joplin1,2021.2.3,59.993400703609076,
_train_cond.csv,0 0 0 1 0 0 1 0 0 0,8,categoryA,f,,,0,4,4,2,1,12,26,4,,,,,,,,,,,,,,,,,,,j,0,0.08355291560292244,,,,,,,,,,,,,,,,,,,,,,,,,,,,,,,,,,,,104,002,2021_Sep_29_1452,joplin1,2021.2.3,59.993400703609076,
_train_cond.csv,0 0 1 0 0 0 0 1 0 0,8,categoryA,f,,,0,4,4,2,1,13,27,5,,,,,,,,,,,,,,,,,,,f,1,1.5748008750379086,,,,,,,,,,,,,,,,,,,,,,,,,,,,,,,,,,,,104,002,2021_Sep_29_1452,joplin1,2021.2.3,59.993400703609076,
_train_cond.csv,0 0 1 0 1 1 0 1 0 0,6,categoryA,f,,,0,4,4,2,2,0,28,2,,,,,,,,,,,,,,,,,,,j,0,1.134371791034937,,,,,,,,,,,,,,,,,,,,,,,,,,,,,,,,,,,,104,002,2021_Sep_29_1452,joplin1,2021.2.3,59.993400703609076,
_train_cond.csv,0 0 1 0 0 0 0 1 0 0,8,categoryA,f,,,0,4,4,2,2,1,29,5,,,,,,,,,,,,,,,,,,,f,1,0.3355540418997407,,,,,,,,,,,,,,,,,,,,,,,,,,,,,,,,,,,,104,002,2021_Sep_29_1452,joplin1,2021.2.3,59.993400703609076,
_train_cond.csv,0 0 1 1 1 1 1 1 0 0,4,categoryB,j,,,0,4,4,2,2,2,30,13,,,,,,,,,,,,,,,,,,,f,0,0.6252535842359066,,,,,,,,,,,,,,,,,,,,,,,,,,,,,,,,,,,,104,002,2021_Sep_29_1452,joplin1,2021.2.3,59.993400703609076,
_train_cond.csv,1 0 0 0 0 0 0 0 0 1,8,categoryA,f,,,0,4,4,2,2,3,31,0,,,,,,,,,,,,,,,,,,,f,1,1.8146517500281334,,,,,,,,,,,,,,,,,,,,,,,,,,,,,,,,,,,,104,002,2021_Sep_29_1452,joplin1,2021.2.3,59.993400703609076,
_train_cond.csv,1 1 0 0 0 0 0 0 1 1,6,categoryA,f,,,0,4,4,2,2,4,32,6,,,,,,,,,,,,,,,,,,,j,0,0.32359841698780656,,,,,,,,,,,,,,,,,,,,,,,,,,,,,,,,,,,,104,002,2021_Sep_29_1452,joplin1,2021.2.3,59.993400703609076,
_train_cond.csv,1 1 1 0 1 1 0 1 1 1,2,categoryB,j,,,0,4,4,2,2,5,33,11,,,,,,,,,,,,,,,,,,,f,0,0.26948133297264576,,,,,,,,,,,,,,,,,,,,,,,,,,,,,,,,,,,,104,002,2021_Sep_29_1452,joplin1,2021.2.3,59.993400703609076,
_train_cond.csv,0 1 1 1 1 1 1 1 1 0,2,categoryB,j,,,0,4,4,2,2,6,34,7,,,,,,,,,,,,,,,,,,,f,0,1.0242624171078205,,,,,,,,,,,,,,,,,,,,,,,,,,,,,,,,,,,,104,002,2021_Sep_29_1452,joplin1,2021.2.3,59.993400703609076,
_train_cond.csv,1 1 0 1 0 0 1 0 1 1,4,categoryB,j,,,0,4,4,2,2,7,35,9,,,,,,,,,,,,,,,,,,,f,0,0.25432279240339994,,,,,,,,,,,,,,,,,,,,,,,,,,,,,,,,,,,,104,002,2021_Sep_29_1452,joplin1,2021.2.3,59.993400703609076,
_train_cond.csv,1 0 1 1 1 1 1 1 0 1,2,categoryB,j,,,0,4,4,2,2,8,36,8,,,,,,,,,,,,,,,,,,,j,1,0.426659082993865,,,,,,,,,,,,,,,,,,,,,,,,,,,,,,,,,,,,104,002,2021_Sep_29_1452,joplin1,2021.2.3,59.993400703609076,
_train_cond.csv,1 1 1 0 0 0 0 1 1 1,4,categoryB,j,,,0,4,4,2,2,9,37,10,,,,,,,,,,,,,,,,,,,j,1,0.008272958919405937,,,,,,,,,,,,,,,,,,,,,,,,,,,,,,,,,,,,104,002,2021_Sep_29_1452,joplin1,2021.2.3,59.993400703609076,
_train_cond.csv,0 0 0 1 1 1 1 0 0 0,6,categoryA,f,,,0,4,4,2,2,10,38,3,,,,,,,,,,,,,,,,,,,j,0,0.1664100829511881,,,,,,,,,,,,,,,,,,,,,,,,,,,,,,,,,,,,104,002,2021_Sep_29_1452,joplin1,2021.2.3,59.993400703609076,
_train_cond.csv,0 1 0 0 0 0 0 0 1 0,8,categoryA,f,,,0,4,4,2,2,11,39,1,,,,,,,,,,,,,,,,,,,f,1,0.742850957904011,,,,,,,,,,,,,,,,,,,,,,,,,,,,,,,,,,,,104,002,2021_Sep_29_1452,joplin1,2021.2.3,59.993400703609076,
_train_cond.csv,1 1 0 1 1 1 1 0 1 1,2,categoryB,j,,,0,4,4,2,2,12,40,12,,,,,,,,,,,,,,,,,,,f,0,0.5915699163451791,,,,,,,,,,,,,,,,,,,,,,,,,,,,,,,,,,,,104,002,2021_Sep_29_1452,joplin1,2021.2.3,59.993400703609076,
_train_cond.csv,0 0 0 1 0 0 1 0 0 0,8,categoryA,f,,,0,4,4,2,2,13,41,4,,,,,,,,,,,,,,,,,,,f,1,0.08599479123950005,,,,,,,,,,,,,,,,,,,,,,,,,,,,,,,,,,,,104,002,2021_Sep_29_1452,joplin1,2021.2.3,59.993400703609076,
_train_cond.csv,,,,,,,0,4,4,2,,,,,,,,,,,,,,,,,,,,,,,,,,space,44.793023915961385,,,,,,,,,,,,,,,,,,,,,,,,,,,,,,,,,,104,002,2021_Sep_29_1452,joplin1,2021.2.3,59.993400703609076,
_train_cond.csv,0 0 0 1 1 1 1 0 0 0,6,categoryA,f,,,0,5,5,3,0,0,0,3,,,,,,,,,,,,,,,,,,,j,0,0.07210516603663564,,,,,,,,,,,,,,,,,,,,,,,,,,,,,,,,,,,,104,002,2021_Sep_29_1452,joplin1,2021.2.3,59.993400703609076,
_train_cond.csv,1 1 1 0 0 0 0 1 1 1,4,categoryB,j,,,0,5,5,3,0,1,1,10,,,,,,,,,,,,,,,,,,,f,0,0.04260679194703698,,,,,,,,,,,,,,,,,,,,,,,,,,,,,,,,,,,,104,002,2021_Sep_29_1452,joplin1,2021.2.3,59.993400703609076,
_train_cond.csv,0 1 1 1 1 1 1 1 1 0,2,categoryB,j,,,0,5,5,3,0,2,2,7,,,,,,,,,,,,,,,,,,,f,0,0.35164487501606345,,,,,,,,,,,,,,,,,,,,,,,,,,,,,,,,,,,,104,002,2021_Sep_29_1452,joplin1,2021.2.3,59.993400703609076,
_train_cond.csv,0 0 0 1 0 0 1 0 0 0,8,categoryA,f,,,0,5,5,3,0,3,3,4,,,,,,,,,,,,,,,,,,,j,0,0.23172129224985838,,,,,,,,,,,,,,,,,,,,,,,,,,,,,,,,,,,,104,002,2021_Sep_29_1452,joplin1,2021.2.3,59.993400703609076,
_train_cond.csv,1 1 0 1 0 0 1 0 1 1,4,categoryB,j,,,0,5,5,3,0,4,4,9,,,,,,,,,,,,,,,,,,,f,0,0.3015692080371082,,,,,,,,,,,,,,,,,,,,,,,,,,,,,,,,,,,,104,002,2021_Sep_29_1452,joplin1,2021.2.3,59.993400703609076,
_train_cond.csv,1 0 0 0 0 0 0 0 0 1,8,categoryA,f,,,0,5,5,3,0,5,5,0,,,,,,,,,,,,,,,,,,,j,0,0.08804241707548499,,,,,,,,,,,,,,,,,,,,,,,,,,,,,,,,,,,,104,002,2021_Sep_29_1452,joplin1,2021.2.3,59.993400703609076,
_train_cond.csv,1 1 0 0 0 0 0 0 1 1,6,categoryA,f,,,0,5,5,3,0,6,6,6,,,,,,,,,,,,,,,,,,,f,1,1.0107876248657703,,,,,,,,,,,,,,,,,,,,,,,,,,,,,,,,,,,,104,002,2021_Sep_29_1452,joplin1,2021.2.3,59.993400703609076,
_train_cond.csv,1 1 0 1 1 1 1 0 1 1,2,categoryB,j,,,0,5,5,3,0,7,7,12,,,,,,,,,,,,,,,,,,,None,0,,,,,,,,,,,,,,,,,,,,,,,,,,,,,,,,,,,,,104,002,2021_Sep_29_1452,joplin1,2021.2.3,59.993400703609076,
_train_cond.csv,0 1 0 0 0 0 0 0 1 0,8,categoryA,f,,,0,5,5,3,0,8,8,1,,,,,,,,,,,,,,,,,,,j,0,0.10340104205533862,,,,,,,,,,,,,,,,,,,,,,,,,,,,,,,,,,,,104,002,2021_Sep_29_1452,joplin1,2021.2.3,59.993400703609076,
_train_cond.csv,0 0 1 0 0 0 0 1 0 0,8,categoryA,f,,,0,5,5,3,0,9,9,5,,,,,,,,,,,,,,,,,,,f,1,0.1461458746343851,,,,,,,,,,,,,,,,,,,,,,,,,,,,,,,,,,,,104,002,2021_Sep_29_1452,joplin1,2021.2.3,59.993400703609076,
_train_cond.csv,0 0 1 1 1 1 1 1 0 0,4,categoryB,j,,,0,5,5,3,0,10,10,13,,,,,,,,,,,,,,,,,,,None,0,,,,,,,,,,,,,,,,,,,,,,,,,,,,,,,,,,,,,104,002,2021_Sep_29_1452,joplin1,2021.2.3,59.993400703609076,
_train_cond.csv,1 0 1 1 1 1 1 1 0 1,2,categoryB,j,,,0,5,5,3,0,11,11,8,,,,,,,,,,,,,,,,,,,j,1,0.04278199980035424,,,,,,,,,,,,,,,,,,,,,,,,,,,,,,,,,,,,104,002,2021_Sep_29_1452,joplin1,2021.2.3,59.993400703609076,
_train_cond.csv,0 0 1 0 1 1 0 1 0 0,6,categoryA,f,,,0,5,5,3,0,12,12,2,,,,,,,,,,,,,,,,,,,f,1,0.25583770778030157,,,,,,,,,,,,,,,,,,,,,,,,,,,,,,,,,,,,104,002,2021_Sep_29_1452,joplin1,2021.2.3,59.993400703609076,
_train_cond.csv,1 1 1 0 1 1 0 1 1 1,2,categoryB,j,,,0,5,5,3,0,13,13,11,,,,,,,,,,,,,,,,,,,j,1,0.17275016708299518,,,,,,,,,,,,,,,,,,,,,,,,,,,,,,,,,,,,104,002,2021_Sep_29_1452,joplin1,2021.2.3,59.993400703609076,
_train_cond.csv,0 0 0 1 1 1 1 0 0 0,6,categoryA,f,,,0,5,5,3,1,0,14,3,,,,,,,,,,,,,,,,,,,f,1,0.19542129198089242,,,,,,,,,,,,,,,,,,,,,,,,,,,,,,,,,,,,104,002,2021_Sep_29_1452,joplin1,2021.2.3,59.993400703609076,
_train_cond.csv,0 0 1 0 1 1 0 1 0 0,6,categoryA,f,,,0,5,5,3,1,1,15,2,,,,,,,,,,,,,,,,,,,f,1,0.2743933340534568,,,,,,,,,,,,,,,,,,,,,,,,,,,,,,,,,,,,104,002,2021_Sep_29_1452,joplin1,2021.2.3,59.993400703609076,
_train_cond.csv,1 1 0 1 1 1 1 0 1 1,2,categoryB,j,,,0,5,5,3,1,2,16,12,,,,,,,,,,,,,,,,,,,j,1,0.2212652498856187,,,,,,,,,,,,,,,,,,,,,,,,,,,,,,,,,,,,104,002,2021_Sep_29_1452,joplin1,2021.2.3,59.993400703609076,
_train_cond.csv,0 0 1 1 1 1 1 1 0 0,4,categoryB,j,,,0,5,5,3,1,3,17,13,,,,,,,,,,,,,,,,,,,f,0,1.9398210407234728,,,,,,,,,,,,,,,,,,,,,,,,,,,,,,,,,,,,104,002,2021_Sep_29_1452,joplin1,2021.2.3,59.993400703609076,
_train_cond.csv,0 0 0 1 0 0 1 0 0 0,8,categoryA,f,,,0,5,5,3,1,4,18,4,,,,,,,,,,,,,,,,,,,None,0,,,,,,,,,,,,,,,,,,,,,,,,,,,,,,,,,,,,,104,002,2021_Sep_29_1452,joplin1,2021.2.3,59.993400703609076,
_train_cond.csv,0 1 0 0 0 0 0 0 1 0,8,categoryA,f,,,0,5,5,3,1,5,19,1,,,,,,,,,,,,,,,,,,,j,0,0.30042437510564923,,,,,,,,,,,,,,,,,,,,,,,,,,,,,,,,,,,,104,002,2021_Sep_29_1452,joplin1,2021.2.3,59.993400703609076,
_train_cond.csv,1 1 0 0 0 0 0 0 1 1,6,categoryA,f,,,0,5,5,3,1,6,20,6,,,,,,,,,,,,,,,,,,,f,1,0.12614587508141994,,,,,,,,,,,,,,,,,,,,,,,,,,,,,,,,,,,,104,002,2021_Sep_29_1452,joplin1,2021.2.3,59.993400703609076,
_train_cond.csv,1 0 1 1 1 1 1 1 0 1,2,categoryB,j,,,0,5,5,3,1,7,21,8,,,,,,,,,,,,,,,,,,,None,0,,,,,,,,,,,,,,,,,,,,,,,,,,,,,,,,,,,,,104,002,2021_Sep_29_1452,joplin1,2021.2.3,59.993400703609076,
_train_cond.csv,1 1 1 0 1 1 0 1 1 1,2,categoryB,j,,,0,5,5,3,1,8,22,11,,,,,,,,,,,,,,,,,,,None,0,,,,,,,,,,,,,,,,,,,,,,,,,,,,,,,,,,,,,104,002,2021_Sep_29_1452,joplin1,2021.2.3,59.993400703609076,
_train_cond.csv,1 1 1 0 0 0 0 1 1 1,4,categoryB,j,,,0,5,5,3,1,9,23,10,,,,,,,,,,,,,,,,,,,j,1,0.39030012488365173,,,,,,,,,,,,,,,,,,,,,,,,,,,,,,,,,,,,104,002,2021_Sep_29_1452,joplin1,2021.2.3,59.993400703609076,
_train_cond.csv,1 1 0 1 0 0 1 0 1 1,4,categoryB,j,,,0,5,5,3,1,10,24,9,,,,,,,,,,,,,,,,,,,j,1,0.3818557499907911,,,,,,,,,,,,,,,,,,,,,,,,,,,,,,,,,,,,104,002,2021_Sep_29_1452,joplin1,2021.2.3,59.993400703609076,
_train_cond.csv,0 1 1 1 1 1 1 1 1 0,2,categoryB,j,,,0,5,5,3,1,11,25,7,,,,,,,,,,,,,,,,,,,j,1,0.15830966690555215,,,,,,,,,,,,,,,,,,,,,,,,,,,,,,,,,,,,104,002,2021_Sep_29_1452,joplin1,2021.2.3,59.993400703609076,
_train_cond.csv,0 0 1 0 0 0 0 1 0 0,8,categoryA,f,,,0,5,5,3,1,12,26,5,,,,,,,,,,,,,,,,,,,j,0,0.4067484578117728,,,,,,,,,,,,,,,,,,,,,,,,,,,,,,,,,,,,104,002,2021_Sep_29_1452,joplin1,2021.2.3,59.993400703609076,
_train_cond.csv,1 0 0 0 0 0 0 0 0 1,8,categoryA,f,,,0,5,5,3,1,13,27,0,,,,,,,,,,,,,,,,,,,f,1,0.02077875006943941,,,,,,,,,,,,,,,,,,,,,,,,,,,,,,,,,,,,104,002,2021_Sep_29_1452,joplin1,2021.2.3,59.993400703609076,
_train_cond.csv,1 1 1 0 1 1 0 1 1 1,2,categoryB,j,,,0,5,5,3,2,0,28,11,,,,,,,,,,,,,,,,,,,f,0,1.9782142909243703,,,,,,,,,,,,,,,,,,,,,,,,,,,,,,,,,,,,104,002,2021_Sep_29_1452,joplin1,2021.2.3,59.993400703609076,
_train_cond.csv,0 0 0 1 1 1 1 0 0 0,6,categoryA,f,,,0,5,5,3,2,1,29,3,,,,,,,,,,,,,,,,,,,j,0,0.4335401658900082,,,,,,,,,,,,,,,,,,,,,,,,,,,,,,,,,,,,104,002,2021_Sep_29_1452,joplin1,2021.2.3,59.993400703609076,
_train_cond.csv,0 0 1 0 1 1 0 1 0 0,6,categoryA,f,,,0,5,5,3,2,2,30,2,,,,,,,,,,,,,,,,,,,None,0,,,,,,,,,,,,,,,,,,,,,,,,,,,,,,,,,,,,,104,002,2021_Sep_29_1452,joplin1,2021.2.3,59.993400703609076,
_train_cond.csv,1 1 0 1 0 0 1 0 1 1,4,categoryB,j,,,0,5,5,3,2,3,31,9,,,,,,,,,,,,,,,,,,,j,1,0.4774705832824111,,,,,,,,,,,,,,,,,,,,,,,,,,,,,,,,,,,,104,002,2021_Sep_29_1452,joplin1,2021.2.3,59.993400703609076,
_train_cond.csv,1 1 0 0 0 0 0 0 1 1,6,categoryA,f,,,0,5,5,3,2,4,32,6,,,,,,,,,,,,,,,,,,,f,1,0.0409678746946156,,,,,,,,,,,,,,,,,,,,,,,,,,,,,,,,,,,,104,002,2021_Sep_29_1452,joplin1,2021.2.3,59.993400703609076,
_train_cond.csv,0 0 1 0 0 0 0 1 0 0,8,categoryA,f,,,0,5,5,3,2,5,33,5,,,,,,,,,,,,,,,,,,,None,0,,,,,,,,,,,,,,,,,,,,,,,,,,,,,,,,,,,,,104,002,2021_Sep_29_1452,joplin1,2021.2.3,59.993400703609076,
_train_cond.csv,1 0 1 1 1 1 1 1 0 1,2,categoryB,j,,,0,5,5,3,2,6,34,8,,,,,,,,,,,,,,,,,,,f,0,0.9342629592865705,,,,,,,,,,,,,,,,,,,,,,,,,,,,,,,,,,,,104,002,2021_Sep_29_1452,joplin1,2021.2.3,59.993400703609076,
_train_cond.csv,1 1 1 0 0 0 0 1 1 1,4,categoryB,j,,,0,5,5,3,2,7,35,10,,,,,,,,,,,,,,,,,,,j,1,1.9348552082665265,,,,,,,,,,,,,,,,,,,,,,,,,,,,,,,,,,,,104,002,2021_Sep_29_1452,joplin1,2021.2.3,59.993400703609076,
_train_cond.csv,0 1 0 0 0 0 0 0 1 0,8,categoryA,f,,,0,5,5,3,2,8,36,1,,,,,,,,,,,,,,,,,,,None,0,,,,,,,,,,,,,,,,,,,,,,,,,,,,,,,,,,,,,104,002,2021_Sep_29_1452,joplin1,2021.2.3,59.993400703609076,
_train_cond.csv,0 0 1 1 1 1 1 1 0 0,4,categoryB,j,,,0,5,5,3,2,9,37,13,,,,,,,,,,,,,,,,,,,None,0,,,,,,,,,,,,,,,,,,,,,,,,,,,,,,,,,,,,,104,002,2021_Sep_29_1452,joplin1,2021.2.3,59.993400703609076,
_train_cond.csv,0 1 1 1 1 1 1 1 1 0,2,categoryB,j,,,0,5,5,3,2,10,38,7,,,,,,,,,,,,,,,,,,,j,1,0.09683883422985673,,,,,,,,,,,,,,,,,,,,,,,,,,,,,,,,,,,,104,002,2021_Sep_29_1452,joplin1,2021.2.3,59.993400703609076,
_train_cond.csv,1 1 0 1 1 1 1 0 1 1,2,categoryB,j,,,0,5,5,3,2,11,39,12,,,,,,,,,,,,,,,,,,,f,0,0.9787365407682955,,,,,,,,,,,,,,,,,,,,,,,,,,,,,,,,,,,,104,002,2021_Sep_29_1452,joplin1,2021.2.3,59.993400703609076,
_train_cond.csv,1 0 0 0 0 0 0 0 0 1,8,categoryA,f,,,0,5,5,3,2,12,40,0,,,,,,,,,,,,,,,,,,,j,0,2.066133583895862,,,,,,,,,,,,,,,,,,,,,,,,,,,,,,,,,,,,104,002,2021_Sep_29_1452,joplin1,2021.2.3,59.993400703609076,
_train_cond.csv,0 0 0 1 0 0 1 0 0 0,8,categoryA,f,,,0,5,5,3,2,13,41,4,,,,,,,,,,,,,,,,,,,None,0,,,,,,,,,,,,,,,,,,,,,,,,,,,,,,,,,,,,,104,002,2021_Sep_29_1452,joplin1,2021.2.3,59.993400703609076,
_train_cond.csv,,,,,,,0,5,5,3,,,,,,,,,,,,,,,,,,,,,,,,,,space,49.90309041598812,,,,,,,,,,,,,,,,,,,,,,,,,,,,,,,,,,104,002,2021_Sep_29_1452,joplin1,2021.2.3,59.993400703609076,
_train_cond.csv,1 1 1 0 0 0 0 1 1 1,4,categoryB,j,,,0,6,6,5,0,0,0,10,,,,,,,,,,,,,,,,,,,j,1,0.056704165879637,,,,,,,,,,,,,,,,,,,,,,,,,,,,,,,,,,,,104,002,2021_Sep_29_1452,joplin1,2021.2.3,59.993400703609076,
_train_cond.csv,1 1 0 0 0 0 0 0 1 1,6,categoryA,f,,,0,6,6,5,0,1,1,6,,,,,,,,,,,,,,,,,,,f,1,0.37267208378762007,,,,,,,,,,,,,,,,,,,,,,,,,,,,,,,,,,,,104,002,2021_Sep_29_1452,joplin1,2021.2.3,59.993400703609076,
_train_cond.csv,0 1 1 1 1 1 1 1 1 0,2,categoryB,j,,,0,6,6,5,0,2,2,7,,,,,,,,,,,,,,,,,,,j,1,0.32388741709291935,,,,,,,,,,,,,,,,,,,,,,,,,,,,,,,,,,,,104,002,2021_Sep_29_1452,joplin1,2021.2.3,59.993400703609076,
_train_cond.csv,1 1 0 1 0 0 1 0 1 1,4,categoryB,j,,,0,6,6,5,0,3,3,9,,,,,,,,,,,,,,,,,,,f,0,0.4135818746872246,,,,,,,,,,,,,,,,,,,,,,,,,,,,,,,,,,,,104,002,2021_Sep_29_1452,joplin1,2021.2.3,59.993400703609076,
_train_cond.csv,0 0 1 0 1 1 0 1 0 0,6,categoryA,f,,,0,6,6,5,0,4,4,2,,,,,,,,,,,,,,,,,,,j,0,0.1625629998743534,,,,,,,,,,,,,,,,,,,,,,,,,,,,,,,,,,,,104,002,2021_Sep_29_1452,joplin1,2021.2.3,59.993400703609076,
_train_cond.csv,0 0 1 1 1 1 1 1 0 0,4,categoryB,j,,,0,6,6,5,0,5,5,13,,,,,,,,,,,,,,,,,,,f,0,0.363236750010401,,,,,,,,,,,,,,,,,,,,,,,,,,,,,,,,,,,,104,002,2021_Sep_29_1452,joplin1,2021.2.3,59.993400703609076,
_train_cond.csv,1 0 0 0 0 0 0 0 0 1,8,categoryA,f,,,0,6,6,5,0,6,6,0,,,,,,,,,,,,,,,,,,,j,0,0.0834020827896893,,,,,,,,,,,,,,,,,,,,,,,,,,,,,,,,,,,,104,002,2021_Sep_29_1452,joplin1,2021.2.3,59.993400703609076,
_train_cond.csv,1 1 1 0 1 1 0 1 1 1,2,categoryB,j,,,0,6,6,5,0,7,7,11,,,,,,,,,,,,,,,,,,,j,1,0.39031400019302964,,,,,,,,,,,,,,,,,,,,,,,,,,,,,,,,,,,,104,002,2021_Sep_29_1452,joplin1,2021.2.3,59.993400703609076,
_train_cond.csv,0 0 1 0 0 0 0 1 0 0,8,categoryA,f,,,0,6,6,5,0,8,8,5,,,,,,,,,,,,,,,,,,,f,1,0.06868470832705498,,,,,,,,,,,,,,,,,,,,,,,,,,,,,,,,,,,,104,002,2021_Sep_29_1452,joplin1,2021.2.3,59.993400703609076,
_train_cond.csv,0 0 0 1 0 0 1 0 0 0,8,categoryA,f,,,0,6,6,5,0,9,9,4,,,,,,,,,,,,,,,,,,,j,0,2.009529958013445,,,,,,,,,,,,,,,,,,,,,,,,,,,,,,,,,,,,104,002,2021_Sep_29_1452,joplin1,2021.2.3,59.993400703609076,
_train_cond.csv,1 0 1 1 1 1 1 1 0 1,2,categoryB,j,,,0,6,6,5,0,10,10,8,,,,,,,,,,,,,,,,,,,None,0,,,,,,,,,,,,,,,,,,,,,,,,,,,,,,,,,,,,,104,002,2021_Sep_29_1452,joplin1,2021.2.3,59.993400703609076,
_train_cond.csv,0 1 0 0 0 0 0 0 1 0,8,categoryA,f,,,0,6,6,5,0,11,11,1,,,,,,,,,,,,,,,,,,,None,0,,,,,,,,,,,,,,,,,,,,,,,,,,,,,,,,,,,,,104,002,2021_Sep_29_1452,joplin1,2021.2.3,59.993400703609076,
_train_cond.csv,0 0 0 1 1 1 1 0 0 0,6,categoryA,f,,,0,6,6,5,0,12,12,3,,,,,,,,,,,,,,,,,,,j,0,1.2870755828917027,,,,,,,,,,,,,,,,,,,,,,,,,,,,,,,,,,,,104,002,2021_Sep_29_1452,joplin1,2021.2.3,59.993400703609076,
_train_cond.csv,1 1 0 1 1 1 1 0 1 1,2,categoryB,j,,,0,6,6,5,0,13,13,12,,,,,,,,,,,,,,,,,,,j,1,0.4334697499871254,,,,,,,,,,,,,,,,,,,,,,,,,,,,,,,,,,,,104,002,2021_Sep_29_1452,joplin1,2021.2.3,59.993400703609076,
_train_cond.csv,1 1 0 1 0 0 1 0 1 1,4,categoryB,j,,,0,6,6,5,1,0,14,9,,,,,,,,,,,,,,,,,,,j,1,0.262792875058949,,,,,,,,,,,,,,,,,,,,,,,,,,,,,,,,,,,,104,002,2021_Sep_29_1452,joplin1,2021.2.3,59.993400703609076,
_train_cond.csv,0 0 1 0 1 1 0 1 0 0,6,categoryA,f,,,0,6,6,5,1,1,15,2,,,,,,,,,,,,,,,,,,,None,0,,,,,,,,,,,,,,,,,,,,,,,,,,,,,,,,,,,,,104,002,2021_Sep_29_1452,joplin1,2021.2.3,59.993400703609076,
_train_cond.csv,1 1 0 1 1 1 1 0 1 1,2,categoryB,j,,,0,6,6,5,1,2,16,12,,,,,,,,,,,,,,,,,,,j,1,0.17875166703015566,,,,,,,,,,,,,,,,,,,,,,,,,,,,,,,,,,,,104,002,2021_Sep_29_1452,joplin1,2021.2.3,59.993400703609076,
_train_cond.csv,0 1 1 1 1 1 1 1 1 0,2,categoryB,j,,,0,6,6,5,1,3,17,7,,,,,,,,,,,,,,,,,,,j,1,0.1535852076485753,,,,,,,,,,,,,,,,,,,,,,,,,,,,,,,,,,,,104,002,2021_Sep_29_1452,joplin1,2021.2.3,59.993400703609076,
_train_cond.csv,0 0 0 1 0 0 1 0 0 0,8,categoryA,f,,,0,6,6,5,1,4,18,4,,,,,,,,,,,,,,,,,,,j,0,0.139014458283782,,,,,,,,,,,,,,,,,,,,,,,,,,,,,,,,,,,,104,002,2021_Sep_29_1452,joplin1,2021.2.3,59.993400703609076,
_train_cond.csv,1 1 0 0 0 0 0 0 1 1,6,categoryA,f,,,0,6,6,5,1,5,19,6,,,,,,,,,,,,,,,,,,,f,1,0.020176957827061415,,,,,,,,,,,,,,,,,,,,,,,,,,,,,,,,,,,,104,002,2021_Sep_29_1452,joplin1,2021.2.3,59.993400703609076,
_train_cond.csv,1 1 1 0 0 0 0 1 1 1,4,categoryB,j,,,0,6,6,5,1,6,20,10,,,,,,,,,,,,,,,,,,,f,0,0.3459061668254435,,,,,,,,,,,,,,,,,,,,,,,,,,,,,,,,,,,,104,002,2021_Sep_29_1452,joplin1,2021.2.3,59.993400703609076,
_train_cond.csv,0 1 0 0 0 0 0 0 1 0,8,categoryA,f,,,0,6,6,5,1,7,21,1,,,,,,,,,,,,,,,,,,,None,0,,,,,,,,,,,,,,,,,,,,,,,,,,,,,,,,,,,,,104,002,2021_Sep_29_1452,joplin1,2021.2.3,59.993400703609076,
_train_cond.csv,1 0 0 0 0 0 0 0 0 1,8,categoryA,f,,,0,6,6,5,1,8,22,0,,,,,,,,,,,,,,,,,,,j,0,0.12273574993014336,,,,,,,,,,,,,,,,,,,,,,,,,,,,,,,,,,,,104,002,2021_Sep_29_1452,joplin1,2021.2.3,59.993400703609076,
_train_cond.csv,1 1 1 0 1 1 0 1 1 1,2,categoryB,j,,,0,6,6,5,1,9,23,11,,,,,,,,,,,,,,,,,,,f,0,0.33177783293649554,,,,,,,,,,,,,,,,,,,,,,,,,,,,,,,,,,,,104,002,2021_Sep_29_1452,joplin1,2021.2.3,59.993400703609076,
_train_cond.csv,0 0 0 1 1 1 1 0 0 0,6,categoryA,f,,,0,6,6,5,1,10,24,3,,,,,,,,,,,,,,,,,,,j,0,0.14869550010189414,,,,,,,,,,,,,,,,,,,,,,,,,,,,,,,,,,,,104,002,2021_Sep_29_1452,joplin1,2021.2.3,59.993400703609076,
_train_cond.csv,1 0 1 1 1 1 1 1 0 1,2,categoryB,j,,,0,6,6,5,1,11,25,8,,,,,,,,,,,,,,,,,,,f,0,0.597223708871752,,,,,,,,,,,,,,,,,,,,,,,,,,,,,,,,,,,,104,002,2021_Sep_29_1452,joplin1,2021.2.3,59.993400703609076,
_train_cond.csv,0 0 1 0 0 0 0 1 0 0,8,categoryA,f,,,0,6,6,5,1,12,26,5,,,,,,,,,,,,,,,,,,,f,1,0.5321190841495991,,,,,,,,,,,,,,,,,,,,,,,,,,,,,,,,,,,,104,002,2021_Sep_29_1452,joplin1,2021.2.3,59.993400703609076,
_train_cond.csv,0 0 1 1 1 1 1 1 0 0,4,categoryB,j,,,0,6,6,5,1,13,27,13,,,,,,,,,,,,,,,,,,,j,1,1.0785588338039815,,,,,,,,,,,,,,,,,,,,,,,,,,,,,,,,,,,,104,002,2021_Sep_29_1452,joplin1,2021.2.3,59.993400703609076,
_train_cond.csv,0 0 1 0 1 1 0 1 0 0,6,categoryA,f,,,0,6,6,5,2,0,28,2,,,,,,,,,,,,,,,,,,,j,0,0.4322326248511672,,,,,,,,,,,,,,,,,,,,,,,,,,,,,,,,,,,,104,002,2021_Sep_29_1452,joplin1,2021.2.3,59.993400703609076,
_train_cond.csv,1 1 0 1 0 0 1 0 1 1,4,categoryB,j,,,0,6,6,5,2,1,29,9,,,,,,,,,,,,,,,,,,,f,0,0.09340354194864631,,,,,,,,,,,,,,,,,,,,,,,,,,,,,,,,,,,,104,002,2021_Sep_29_1452,joplin1,2021.2.3,59.993400703609076,
_train_cond.csv,1 1 0 1 1 1 1 0 1 1,2,categoryB,j,,,0,6,6,5,2,2,30,12,,,,,,,,,,,,,,,,,,,j,1,0.8648092080838978,,,,,,,,,,,,,,,,,,,,,,,,,,,,,,,,,,,,104,002,2021_Sep_29_1452,joplin1,2021.2.3,59.993400703609076,
_train_cond.csv,1 1 0 0 0 0 0 0 1 1,6,categoryA,f,,,0,6,6,5,2,3,31,6,,,,,,,,,,,,,,,,,,,j,0,1.7804453750140965,,,,,,,,,,,,,,,,,,,,,,,,,,,,,,,,,,,,104,002,2021_Sep_29_1452,joplin1,2021.2.3,59.993400703609076,
_train_cond.csv,1 0 1 1 1 1 1 1 0 1,2,categoryB,j,,,0,6,6,5,2,4,32,8,,,,,,,,,,,,,,,,,,,j,1,0.38824679190292954,,,,,,,,,,,,,,,,,,,,,,,,,,,,,,,,,,,,104,002,2021_Sep_29_1452,joplin1,2021.2.3,59.993400703609076,
_train_cond.csv,0 0 0 1 0 0 1 0 0 0,8,categoryA,f,,,0,6,6,5,2,5,33,4,,,,,,,,,,,,,,,,,,,j,0,1.354880957864225,,,,,,,,,,,,,,,,,,,,,,,,,,,,,,,,,,,,104,002,2021_Sep_29_1452,joplin1,2021.2.3,59.993400703609076,
_train_cond.csv,1 1 1 0 1 1 0 1 1 1,2,categoryB,j,,,0,6,6,5,2,6,34,11,,,,,,,,,,,,,,,,,,,j,1,1.858258125372231,,,,,,,,,,,,,,,,,,,,,,,,,,,,,,,,,,,,104,002,2021_Sep_29_1452,joplin1,2021.2.3,59.993400703609076,
_train_cond.csv,1 0 0 0 0 0 0 0 0 1,8,categoryA,f,,,0,6,6,5,2,7,35,0,,,,,,,,,,,,,,,,,,,j,0,0.3431208343245089,,,,,,,,,,,,,,,,,,,,,,,,,,,,,,,,,,,,104,002,2021_Sep_29_1452,joplin1,2021.2.3,59.993400703609076,
_train_cond.csv,0 0 0 1 1 1 1 0 0 0,6,categoryA,f,,,0,6,6,5,2,8,36,3,,,,,,,,,,,,,,,,,,,j,0,0.0708121252246201,,,,,,,,,,,,,,,,,,,,,,,,,,,,,,,,,,,,104,002,2021_Sep_29_1452,joplin1,2021.2.3,59.993400703609076,
_train_cond.csv,1 1 1 0 0 0 0 1 1 1,4,categoryB,j,,,0,6,6,5,2,9,37,10,,,,,,,,,,,,,,,,,,,j,1,0.17090066708624363,,,,,,,,,,,,,,,,,,,,,,,,,,,,,,,,,,,,104,002,2021_Sep_29_1452,joplin1,2021.2.3,59.993400703609076,
_train_cond.csv,0 1 0 0 0 0 0 0 1 0,8,categoryA,f,,,0,6,6,5,2,10,38,1,,,,,,,,,,,,,,,,,,,j,0,0.4581525828689337,,,,,,,,,,,,,,,,,,,,,,,,,,,,,,,,,,,,104,002,2021_Sep_29_1452,joplin1,2021.2.3,59.993400703609076,
_train_cond.csv,0 0 1 1 1 1 1 1 0 0,4,categoryB,j,,,0,6,6,5,2,11,39,13,,,,,,,,,,,,,,,,,,,f,0,0.14201050018891692,,,,,,,,,,,,,,,,,,,,,,,,,,,,,,,,,,,,104,002,2021_Sep_29_1452,joplin1,2021.2.3,59.993400703609076,
_train_cond.csv,0 1 1 1 1 1 1 1 1 0,2,categoryB,j,,,0,6,6,5,2,12,40,7,,,,,,,,,,,,,,,,,,,j,1,0.0711243343539536,,,,,,,,,,,,,,,,,,,,,,,,,,,,,,,,,,,,104,002,2021_Sep_29_1452,joplin1,2021.2.3,59.993400703609076,
_train_cond.csv,0 0 1 0 0 0 0 1 0 0,8,categoryA,f,,,0,6,6,5,2,13,41,5,,,,,,,,,,,,,,,,,,,j,0,0.4030249170027673,,,,,,,,,,,,,,,,,,,,,,,,,,,,,,,,,,,,104,002,2021_Sep_29_1452,joplin1,2021.2.3,59.993400703609076,
_train_cond.csv,,,,,,,0,6,6,5,,,,,,,,,,,,,,,,,,,,,,,,,,space,1.8808644167147577,,,,,,,,,,,,,,,,,,,,,,,,,,,,,,,,,,104,002,2021_Sep_29_1452,joplin1,2021.2.3,59.993400703609076,
_train_cond.csv,1 1 1 0 0 0 0 1 1 1,4,categoryB,j,,,0,7,7,4,0,0,0,10,,,,,,,,,,,,,,,,,,,f,0,1.956956457812339,,,,,,,,,,,,,,,,,,,,,,,,,,,,,,,,,,,,104,002,2021_Sep_29_1452,joplin1,2021.2.3,59.993400703609076,
_train_cond.csv,1 1 0 1 0 0 1 0 1 1,4,categoryB,j,,,0,7,7,4,0,1,1,9,,,,,,,,,,,,,,,,,,,j,1,0.30922991689294577,,,,,,,,,,,,,,,,,,,,,,,,,,,,,,,,,,,,104,002,2021_Sep_29_1452,joplin1,2021.2.3,59.993400703609076,
_train_cond.csv,0 0 1 1 1 1 1 1 0 0,4,categoryB,j,,,0,7,7,4,0,2,2,13,,,,,,,,,,,,,,,,,,,j,1,0.34287700010463595,,,,,,,,,,,,,,,,,,,,,,,,,,,,,,,,,,,,104,002,2021_Sep_29_1452,joplin1,2021.2.3,59.993400703609076,
_train_cond.csv,0 0 1 0 1 1 0 1 0 0,6,categoryA,f,,,0,7,7,4,0,3,3,2,,,,,,,,,,,,,,,,,,,f,1,0.23198270797729492,,,,,,,,,,,,,,,,,,,,,,,,,,,,,,,,,,,,104,002,2021_Sep_29_1452,joplin1,2021.2.3,59.993400703609076,
_train_cond.csv,1 1 0 1 1 1 1 0 1 1,2,categoryB,j,,,0,7,7,4,0,4,4,12,,,,,,,,,,,,,,,,,,,j,1,0.26172291580587626,,,,,,,,,,,,,,,,,,,,,,,,,,,,,,,,,,,,104,002,2021_Sep_29_1452,joplin1,2021.2.3,59.993400703609076,
_train_cond.csv,1 0 0 0 0 0 0 0 0 1,8,categoryA,f,,,0,7,7,4,0,5,5,0,,,,,,,,,,,,,,,,,,,f,1,0.33761770790442824,,,,,,,,,,,,,,,,,,,,,,,,,,,,,,,,,,,,104,002,2021_Sep_29_1452,joplin1,2021.2.3,59.993400703609076,
_train_cond.csv,0 1 0 0 0 0 0 0 1 0,8,categoryA,f,,,0,7,7,4,0,6,6,1,,,,,,,,,,,,,,,,,,,j,0,0.46667108312249184,,,,,,,,,,,,,,,,,,,,,,,,,,,,,,,,,,,,104,002,2021_Sep_29_1452,joplin1,2021.2.3,59.993400703609076,
_train_cond.csv,0 0 0 1 0 0 1 0 0 0,8,categoryA,f,,,0,7,7,4,0,7,7,4,,,,,,,,,,,,,,,,,,,f,1,0.19049054197967052,,,,,,,,,,,,,,,,,,,,,,,,,,,,,,,,,,,,104,002,2021_Sep_29_1452,joplin1,2021.2.3,59.993400703609076,
_train_cond.csv,0 1 1 1 1 1 1 1 1 0,2,categoryB,j,,,0,7,7,4,0,8,8,7,,,,,,,,,,,,,,,,,,,f,0,0.38133704103529453,,,,,,,,,,,,,,,,,,,,,,,,,,,,,,,,,,,,104,002,2021_Sep_29_1452,joplin1,2021.2.3,59.993400703609076,
_train_cond.csv,1 1 0 0 0 0 0 0 1 1,6,categoryA,f,,,0,7,7,4,0,9,9,6,,,,,,,,,,,,,,,,,,,j,0,0.22852154215797782,,,,,,,,,,,,,,,,,,,,,,,,,,,,,,,,,,,,104,002,2021_Sep_29_1452,joplin1,2021.2.3,59.993400703609076,
_train_cond.csv,1 1 1 0 1 1 0 1 1 1,2,categoryB,j,,,0,7,7,4,0,10,10,11,,,,,,,,,,,,,,,,,,,f,0,0.04221616731956601,,,,,,,,,,,,,,,,,,,,,,,,,,,,,,,,,,,,104,002,2021_Sep_29_1452,joplin1,2021.2.3,59.993400703609076,
_train_cond.csv,0 0 1 0 0 0 0 1 0 0,8,categoryA,f,,,0,7,7,4,0,11,11,5,,,,,,,,,,,,,,,,,,,j,0,0.3107961672358215,,,,,,,,,,,,,,,,,,,,,,,,,,,,,,,,,,,,104,002,2021_Sep_29_1452,joplin1,2021.2.3,59.993400703609076,
_train_cond.csv,0 0 0 1 1 1 1 0 0 0,6,categoryA,f,,,0,7,7,4,0,12,12,3,,,,,,,,,,,,,,,,,,,f,1,0.2328631249256432,,,,,,,,,,,,,,,,,,,,,,,,,,,,,,,,,,,,104,002,2021_Sep_29_1452,joplin1,2021.2.3,59.993400703609076,
_train_cond.csv,1 0 1 1 1 1 1 1 0 1,2,categoryB,j,,,0,7,7,4,0,13,13,8,,,,,,,,,,,,,,,,,,,f,0,0.10987420892342925,,,,,,,,,,,,,,,,,,,,,,,,,,,,,,,,,,,,104,002,2021_Sep_29_1452,joplin1,2021.2.3,59.993400703609076,
_train_cond.csv,0 0 0 1 0 0 1 0 0 0,8,categoryA,f,,,0,7,7,4,1,0,14,4,,,,,,,,,,,,,,,,,,,f,1,0.3438887498341501,,,,,,,,,,,,,,,,,,,,,,,,,,,,,,,,,,,,104,002,2021_Sep_29_1452,joplin1,2021.2.3,59.993400703609076,
_train_cond.csv,0 0 1 0 0 0 0 1 0 0,8,categoryA,f,,,0,7,7,4,1,1,15,5,,,,,,,,,,,,,,,,,,,j,0,0.08069220930337906,,,,,,,,,,,,,,,,,,,,,,,,,,,,,,,,,,,,104,002,2021_Sep_29_1452,joplin1,2021.2.3,59.993400703609076,
_train_cond.csv,0 0 0 1 1 1 1 0 0 0,6,categoryA,f,,,0,7,7,4,1,2,16,3,,,,,,,,,,,,,,,,,,,f,1,0.29999433271586895,,,,,,,,,,,,,,,,,,,,,,,,,,,,,,,,,,,,104,002,2021_Sep_29_1452,joplin1,2021.2.3,59.993400703609076,
_train_cond.csv,0 1 1 1 1 1 1 1 1 0,2,categoryB,j,,,0,7,7,4,1,3,17,7,,,,,,,,,,,,,,,,,,,f,0,0.30302995815873146,,,,,,,,,,,,,,,,,,,,,,,,,,,,,,,,,,,,104,002,2021_Sep_29_1452,joplin1,2021.2.3,59.993400703609076,
_train_cond.csv,0 0 1 1 1 1 1 1 0 0,4,categoryB,j,,,0,7,7,4,1,4,18,13,,,,,,,,,,,,,,,,,,,j,1,0.26425025006756186,,,,,,,,,,,,,,,,,,,,,,,,,,,,,,,,,,,,104,002,2021_Sep_29_1452,joplin1,2021.2.3,59.993400703609076,
_train_cond.csv,1 1 0 1 1 1 1 0 1 1,2,categoryB,j,,,0,7,7,4,1,5,19,12,,,,,,,,,,,,,,,,,,,f,0,0.300439499784261,,,,,,,,,,,,,,,,,,,,,,,,,,,,,,,,,,,,104,002,2021_Sep_29_1452,joplin1,2021.2.3,59.993400703609076,
_train_cond.csv,0 1 0 0 0 0 0 0 1 0,8,categoryA,f,,,0,7,7,4,1,6,20,1,,,,,,,,,,,,,,,,,,,f,1,0.24024654226377606,,,,,,,,,,,,,,,,,,,,,,,,,,,,,,,,,,,,104,002,2021_Sep_29_1452,joplin1,2021.2.3,59.993400703609076,
_train_cond.csv,1 1 1 0 1 1 0 1 1 1,2,categoryB,j,,,0,7,7,4,1,7,21,11,,,,,,,,,,,,,,,,,,,f,0,0.30790020897984505,,,,,,,,,,,,,,,,,,,,,,,,,,,,,,,,,,,,104,002,2021_Sep_29_1452,joplin1,2021.2.3,59.993400703609076,
_train_cond.csv,1 0 0 0 0 0 0 0 0 1,8,categoryA,f,,,0,7,7,4,1,8,22,0,,,,,,,,,,,,,,,,,,,f,1,0.9988603750243783,,,,,,,,,,,,,,,,,,,,,,,,,,,,,,,,,,,,104,002,2021_Sep_29_1452,joplin1,2021.2.3,59.993400703609076,
_train_cond.csv,1 1 1 0 0 0 0 1 1 1,4,categoryB,j,,,0,7,7,4,1,9,23,10,,,,,,,,,,,,,,,,,,,j,1,0.6774839172139764,,,,,,,,,,,,,,,,,,,,,,,,,,,,,,,,,,,,104,002,2021_Sep_29_1452,joplin1,2021.2.3,59.993400703609076,
_train_cond.csv,1 0 1 1 1 1 1 1 0 1,2,categoryB,j,,,0,7,7,4,1,10,24,8,,,,,,,,,,,,,,,,,,,f,0,1.184852167032659,,,,,,,,,,,,,,,,,,,,,,,,,,,,,,,,,,,,104,002,2021_Sep_29_1452,joplin1,2021.2.3,59.993400703609076,
_train_cond.csv,1 1 0 1 0 0 1 0 1 1,4,categoryB,j,,,0,7,7,4,1,11,25,9,,,,,,,,,,,,,,,,,,,j,1,1.335992916021496,,,,,,,,,,,,,,,,,,,,,,,,,,,,,,,,,,,,104,002,2021_Sep_29_1452,joplin1,2021.2.3,59.993400703609076,
_train_cond.csv,0 0 1 0 1 1 0 1 0 0,6,categoryA,f,,,0,7,7,4,1,12,26,2,,,,,,,,,,,,,,,,,,,j,0,0.8894627499394119,,,,,,,,,,,,,,,,,,,,,,,,,,,,,,,,,,,,104,002,2021_Sep_29_1452,joplin1,2021.2.3,59.993400703609076,
_train_cond.csv,1 1 0 0 0 0 0 0 1 1,6,categoryA,f,,,0,7,7,4,1,13,27,6,,,,,,,,,,,,,,,,,,,None,0,,,,,,,,,,,,,,,,,,,,,,,,,,,,,,,,,,,,,104,002,2021_Sep_29_1452,joplin1,2021.2.3,59.993400703609076,
_train_cond.csv,1 0 0 0 0 0 0 0 0 1,8,categoryA,f,,,0,7,7,4,2,0,28,0,,,,,,,,,,,,,,,,,,,f,1,0.2596275000832975,,,,,,,,,,,,,,,,,,,,,,,,,,,,,,,,,,,,104,002,2021_Sep_29_1452,joplin1,2021.2.3,59.993400703609076,
_train_cond.csv,0 0 0 1 0 0 1 0 0 0,8,categoryA,f,,,0,7,7,4,2,1,29,4,,,,,,,,,,,,,,,,,,,None,0,,,,,,,,,,,,,,,,,,,,,,,,,,,,,,,,,,,,,104,002,2021_Sep_29_1452,joplin1,2021.2.3,59.993400703609076,
_train_cond.csv,1 1 0 0 0 0 0 0 1 1,6,categoryA,f,,,0,7,7,4,2,2,30,6,,,,,,,,,,,,,,,,,,,f,1,0.23080825014039874,,,,,,,,,,,,,,,,,,,,,,,,,,,,,,,,,,,,104,002,2021_Sep_29_1452,joplin1,2021.2.3,59.993400703609076,
_train_cond.csv,1 1 0 1 0 0 1 0 1 1,4,categoryB,j,,,0,7,7,4,2,3,31,9,,,,,,,,,,,,,,,,,,,f,0,2.3962551658041775,,,,,,,,,,,,,,,,,,,,,,,,,,,,,,,,,,,,104,002,2021_Sep_29_1452,joplin1,2021.2.3,59.993400703609076,
_train_cond.csv,1 1 1 0 0 0 0 1 1 1,4,categoryB,j,,,0,7,7,4,2,4,32,10,,,,,,,,,,,,,,,,,,,None,0,,,,,,,,,,,,,,,,,,,,,,,,,,,,,,,,,,,,,104,002,2021_Sep_29_1452,joplin1,2021.2.3,59.993400703609076,
_train_cond.csv,1 1 0 1 1 1 1 0 1 1,2,categoryB,j,,,0,7,7,4,2,5,33,12,,,,,,,,,,,,,,,,,,,f,0,0.4977957080118358,,,,,,,,,,,,,,,,,,,,,,,,,,,,,,,,,,,,104,002,2021_Sep_29_1452,joplin1,2021.2.3,59.993400703609076,
_train_cond.csv,0 1 1 1 1 1 1 1 1 0,2,categoryB,j,,,0,7,7,4,2,6,34,7,,,,,,,,,,,,,,,,,,,j,1,0.09986712504178286,,,,,,,,,,,,,,,,,,,,,,,,,,,,,,,,,,,,104,002,2021_Sep_29_1452,joplin1,2021.2.3,59.993400703609076,
_train_cond.csv,0 0 1 0 1 1 0 1 0 0,6,categoryA,f,,,0,7,7,4,2,7,35,2,,,,,,,,,,,,,,,,,,,j,0,0.3036682498641312,,,,,,,,,,,,,,,,,,,,,,,,,,,,,,,,,,,,104,002,2021_Sep_29_1452,joplin1,2021.2.3,59.993400703609076,
_train_cond.csv,0 0 1 1 1 1 1 1 0 0,4,categoryB,j,,,0,7,7,4,2,8,36,13,,,,,,,,,,,,,,,,,,,f,0,0.049347332678735256,,,,,,,,,,,,,,,,,,,,,,,,,,,,,,,,,,,,104,002,2021_Sep_29_1452,joplin1,2021.2.3,59.993400703609076,
_train_cond.csv,0 0 0 1 1 1 1 0 0 0,6,categoryA,f,,,0,7,7,4,2,9,37,3,,,,,,,,,,,,,,,,,,,j,0,0.038267083931714296,,,,,,,,,,,,,,,,,,,,,,,,,,,,,,,,,,,,104,002,2021_Sep_29_1452,joplin1,2021.2.3,59.993400703609076,
_train_cond.csv,0 1 0 0 0 0 0 0 1 0,8,categoryA,f,,,0,7,7,4,2,10,38,1,,,,,,,,,,,,,,,,,,,f,1,0.30606062477454543,,,,,,,,,,,,,,,,,,,,,,,,,,,,,,,,,,,,104,002,2021_Sep_29_1452,joplin1,2021.2.3,59.993400703609076,
_train_cond.csv,1 1 1 0 1 1 0 1 1 1,2,categoryB,j,,,0,7,7,4,2,11,39,11,,,,,,,,,,,,,,,,,,,f,0,0.6528989584185183,,,,,,,,,,,,,,,,,,,,,,,,,,,,,,,,,,,,104,002,2021_Sep_29_1452,joplin1,2021.2.3,59.993400703609076,
_train_cond.csv,1 0 1 1 1 1 1 1 0 1,2,categoryB,j,,,0,7,7,4,2,12,40,8,,,,,,,,,,,,,,,,,,,f,0,0.6088024582713842,,,,,,,,,,,,,,,,,,,,,,,,,,,,,,,,,,,,104,002,2021_Sep_29_1452,joplin1,2021.2.3,59.993400703609076,
_train_cond.csv,0 0 1 0 0 0 0 1 0 0,8,categoryA,f,,,0,7,7,4,2,13,41,5,,,,,,,,,,,,,,,,,,,f,1,2.6795533751137555,,,,,,,,,,,,,,,,,,,,,,,,,,,,,,,,,,,,104,002,2021_Sep_29_1452,joplin1,2021.2.3,59.993400703609076,
_train_cond.csv,,,,,,,0,7,7,4,,,,,,,,,,,,,,,,,,,,,,,,,,space,19.24214412458241,,,,,,,,,,,,,,,,,,,,,,,,,,,,,,,,,,104,002,2021_Sep_29_1452,joplin1,2021.2.3,59.993400703609076,
,,,,,,,,,,,,,,,,,,,,,,,,,,,,,,,,,,,,,,q,10.920046625193208,,,,,,,,,,,,,,,,,,,,,,,,,,,,,,,,104,002,2021_Sep_29_1452,joplin1,2021.2.3,59.993400703609076,
,,,,,,,,,,,,,,,,,,,,,,,,,,,,,,,,,,,,,,,,j,7.058486292138696,,,,,,,,,,,,,,,,,,,,,,,,,,,,,,104,002,2021_Sep_29_1452,joplin1,2021.2.3,59.993400703609076,
,,,,,,,,,,,,,,,,,,,,,,,,,,,,,,,,,,,,,,,,,,space,51.71239504124969,,,,,,,,,,,,,,,,,,,,,,,,,,,,104,002,2021_Sep_29_1452,joplin1,2021.2.3,59.993400703609076,
,,,,,,,,,,,,,,,,,,,,,,,,,,,,,,,,,,,,,,,,,,,,space,1.0973524576984346,,,,,,,,,,,,,,,,,,,,,,,,,,104,002,2021_Sep_29_1452,joplin1,2021.2.3,59.993400703609076,
,1 0 0 0 1 0 1 1 1 1,4,categoryB,j,genfile1.csv,0,,,,,,,,,0,0,0,0,0,0,0,37,,,,,,,,,,,,,,,,,,,,,,,,f,0,0.2182090412825346,,,,,,,,,,,,,,,,,,,,,,,104,002,2021_Sep_29_1452,joplin1,2021.2.3,59.993400703609076,
,1 0 1 1 1 1 0 1 1 1,2,categoryB,j,genfile1.csv,0,,,,,,,,,0,0,0,0,0,1,1,50,,,,,,,,,,,,,,,,,,,,,,,,j,1,0.6789239170029759,,,,,,,,,,,,,,,,,,,,,,,104,002,2021_Sep_29_1452,joplin1,2021.2.3,59.993400703609076,
,0 0 1 0 0 1 1 0 0 0,7,categoryA,f,genfile1.csv,0,,,,,,,,,0,0,0,0,0,2,2,29,,,,,,,,,,,,,,,,,,,,,,,,j,0,0.21800979180261493,,,,,,,,,,,,,,,,,,,,,,,104,002,2021_Sep_29_1452,joplin1,2021.2.3,59.993400703609076,
,0 1 1 1 0 1 0 1 1 1,3,categoryB,j,genfile1.csv,0,,,,,,,,,0,0,0,0,0,3,3,43,,,,,,,,,,,,,,,,,,,,,,,,f,0,1.1671357499435544,,,,,,,,,,,,,,,,,,,,,,,104,002,2021_Sep_29_1452,joplin1,2021.2.3,59.993400703609076,
,1 1 0 0 1 1 0 1 1 1,3,categoryB,j,genfile1.csv,0,,,,,,,,,0,0,0,0,0,4,4,41,,,,,,,,,,,,,,,,,,,,,,,,f,0,0.8048938331194222,,,,,,,,,,,,,,,,,,,,,,,104,002,2021_Sep_29_1452,joplin1,2021.2.3,59.993400703609076,
,1 1 0 1 1 1 1 1 1 1,1,categoryB,j,genfile1.csv,0,,,,,,,,,0,0,0,0,0,5,5,51,,,,,,,,,,,,,,,,,,,,,,,,None,0,,,,,,,,,,,,,,,,,,,,,,,,104,002,2021_Sep_29_1452,joplin1,2021.2.3,59.993400703609076,
,0 1 1 1 1 1 1 1 1 0,2,categoryB,j,genfile1.csv,1,,,,,,,,,0,0,0,0,0,6,6,9,,,,,,,,,,,,,,,,,,,,,,,,f,0,0.9858334995806217,,,,,,,,,,,,,,,,,,,,,,,104,002,2021_Sep_29_1452,joplin1,2021.2.3,59.993400703609076,
,0 1 1 1 1 1 1 0 1 1,2,categoryB,j,genfile1.csv,0,,,,,,,,,0,0,0,0,0,7,7,47,,,,,,,,,,,,,,,,,,,,,,,,None,0,,,,,,,,,,,,,,,,,,,,,,,,104,002,2021_Sep_29_1452,joplin1,2021.2.3,59.993400703609076,
,0 0 0 0 0 0 0 0 0 0,10,categoryA,f,genfile1.csv,0,,,,,,,,,0,0,0,0,0,8,8,0,,,,,,,,,,,,,,,,,,,,,,,,j,0,0.982227083761245,,,,,,,,,,,,,,,,,,,,,,,104,002,2021_Sep_29_1452,joplin1,2021.2.3,59.993400703609076,
,1 1 1 0 1 1 0 1 1 1,2,categoryB,j,genfile1.csv,1,,,,,,,,,0,0,0,0,0,9,9,13,,,,,,,,,,,,,,,,,,,,,,,,j,1,1.4462048327550292,,,,,,,,,,,,,,,,,,,,,,,104,002,2021_Sep_29_1452,joplin1,2021.2.3,59.993400703609076,
,0 0 0 0 0 1 0 0 0 0,9,categoryA,f,genfile1.csv,0,,,,,,,,,0,0,0,0,0,10,10,20,,,,,,,,,,,,,,,,,,,,,,,,f,1,0.6109101660549641,,,,,,,,,,,,,,,,,,,,,,,104,002,2021_Sep_29_1452,joplin1,2021.2.3,59.993400703609076,
,1 0 1 1 1 0 0 1 0 1,4,categoryB,j,genfile1.csv,0,,,,,,,,,0,0,0,0,0,11,11,38,,,,,,,,,,,,,,,,,,,,,,,,j,1,0.6568318330682814,,,,,,,,,,,,,,,,,,,,,,,104,002,2021_Sep_29_1452,joplin1,2021.2.3,59.993400703609076,
,1 1 0 1 0 0 1 0 1 1,4,categoryB,j,genfile1.csv,1,,,,,,,,,0,0,0,0,0,12,12,11,,,,,,,,,,,,,,,,,,,,,,,,j,1,0.74918970791623,,,,,,,,,,,,,,,,,,,,,,,104,002,2021_Sep_29_1452,joplin1,2021.2.3,59.993400703609076,
,1 0 1 1 1 1 1 1 0 1,2,categoryB,j,genfile1.csv,1,,,,,,,,,0,0,0,0,0,13,13,10,,,,,,,,,,,,,,,,,,,,,,,,j,1,1.0226370417512953,,,,,,,,,,,,,,,,,,,,,,,104,002,2021_Sep_29_1452,joplin1,2021.2.3,59.993400703609076,
,1 0 0 0 1 0 0 0 0 1,7,categoryA,f,genfile1.csv,0,,,,,,,,,0,0,0,0,0,14,14,27,,,,,,,,,,,,,,,,,,,,,,,,j,0,0.2900920417159796,,,,,,,,,,,,,,,,,,,,,,,104,002,2021_Sep_29_1452,joplin1,2021.2.3,59.993400703609076,
,0 0 0 1 1 0 0 0 0 0,8,categoryA,f,genfile1.csv,0,,,,,,,,,0,0,0,0,0,15,15,22,,,,,,,,,,,,,,,,,,,,,,,,j,0,1.0854298751801252,,,,,,,,,,,,,,,,,,,,,,,104,002,2021_Sep_29_1452,joplin1,2021.2.3,59.993400703609076,
,1 1 0 0 1 1 0 1 1 0,4,categoryB,j,genfile1.csv,0,,,,,,,,,0,0,0,0,0,16,16,40,,,,,,,,,,,,,,,,,,,,,,,,f,0,0.27625324996188283,,,,,,,,,,,,,,,,,,,,,,,104,002,2021_Sep_29_1452,joplin1,2021.2.3,59.993400703609076,
,0 0 1 1 1 1 1 1 0 0,4,categoryB,j,genfile1.csv,1,,,,,,,,,0,0,0,0,0,17,17,15,,,,,,,,,,,,,,,,,,,,,,,,f,0,0.8638428328558803,,,,,,,,,,,,,,,,,,,,,,,104,002,2021_Sep_29_1452,joplin1,2021.2.3,59.993400703609076,
,1 0 0 1 0 0 1 0 0 1,6,categoryA,f,genfile1.csv,0,,,,,,,,,0,0,0,0,0,18,18,34,,,,,,,,,,,,,,,,,,,,,,,,f,1,1.043202290777117,,,,,,,,,,,,,,,,,,,,,,,104,002,2021_Sep_29_1452,joplin1,2021.2.3,59.993400703609076,
,1 1 0 1 0 1 1 0 1 1,3,categoryB,j,genfile1.csv,0,,,,,,,,,0,0,0,0,0,19,19,44,,,,,,,,,,,,,,,,,,,,,,,,j,1,1.7767900829203427,,,,,,,,,,,,,,,,,,,,,,,104,002,2021_Sep_29_1452,joplin1,2021.2.3,59.993400703609076,
,0 0 1 0 0 0 1 1 0 0,7,categoryA,f,genfile1.csv,0,,,,,,,,,0,0,0,0,0,20,20,26,,,,,,,,,,,,,,,,,,,,,,,,j,0,1.2000740421935916,,,,,,,,,,,,,,,,,,,,,,,104,002,2021_Sep_29_1452,joplin1,2021.2.3,59.993400703609076,
,1 1 0 1 0 1 1 1 0 1,3,categoryB,j,genfile1.csv,0,,,,,,,,,0,0,0,0,0,21,21,45,,,,,,,,,,,,,,,,,,,,,,,,j,1,1.3397544999606907,,,,,,,,,,,,,,,,,,,,,,,104,002,2021_Sep_29_1452,joplin1,2021.2.3,59.993400703609076,
,1 0 0 0 0 1 0 0 0 0,8,categoryA,f,genfile1.csv,0,,,,,,,,,0,0,0,0,0,22,22,25,,,,,,,,,,,,,,,,,,,,,,,,f,1,0.6448100418783724,,,,,,,,,,,,,,,,,,,,,,,104,002,2021_Sep_29_1452,joplin1,2021.2.3,59.993400703609076,
,0 0 0 1 1 1 0 0 1 0,6,categoryA,f,genfile1.csv,0,,,,,,,,,0,0,0,0,0,23,23,32,,,,,,,,,,,,,,,,,,,,,,,,j,0,1.5677557080052793,,,,,,,,,,,,,,,,,,,,,,,104,002,2021_Sep_29_1452,joplin1,2021.2.3,59.993400703609076,
,0 0 0 0 0 1 1 0 0 0,8,categoryA,f,genfile1.csv,0,,,,,,,,,0,0,0,0,0,24,24,21,,,,,,,,,,,,,,,,,,,,,,,,j,0,1.9742814577184618,,,,,,,,,,,,,,,,,,,,,,,104,002,2021_Sep_29_1452,joplin1,2021.2.3,59.993400703609076,
,1 1 1 0 0 0 0 1 1 1,4,categoryB,j,genfile1.csv,1,,,,,,,,,0,0,0,0,0,25,25,12,,,,,,,,,,,,,,,,,,,,,,,,j,1,1.6716166250407696,,,,,,,,,,,,,,,,,,,,,,,104,002,2021_Sep_29_1452,joplin1,2021.2.3,59.993400703609076,
,0 0 1 0 1 0 1 0 0 0,7,categoryA,f,genfile1.csv,0,,,,,,,,,0,0,0,0,0,26,26,28,,,,,,,,,,,,,,,,,,,,,,,,f,1,0.9611039576120675,,,,,,,,,,,,,,,,,,,,,,,104,002,2021_Sep_29_1452,joplin1,2021.2.3,59.993400703609076,
,0 0 0 0 0 0 0 0 0 1,9,categoryA,f,genfile1.csv,0,,,,,,,,,0,0,0,0,0,27,27,16,,,,,,,,,,,,,,,,,,,,,,,,f,1,1.7762105409055948,,,,,,,,,,,,,,,,,,,,,,,104,002,2021_Sep_29_1452,joplin1,2021.2.3,59.993400703609076,
,0 0 0 0 1 0 0 0 0 0,9,categoryA,f,genfile1.csv,0,,,,,,,,,0,0,0,0,0,28,28,19,,,,,,,,,,,,,,,,,,,,,,,,j,0,1.9442470003850758,,,,,,,,,,,,,,,,,,,,,,,104,002,2021_Sep_29_1452,joplin1,2021.2.3,59.993400703609076,
,0 1 1 1 1 1 1 1 1 1,1,categoryB,j,genfile1.csv,0,,,,,,,,,0,0,0,0,0,29,29,55,,,,,,,,,,,,,,,,,,,,,,,,j,1,1.7209332920610905,,,,,,,,,,,,,,,,,,,,,,,104,002,2021_Sep_29_1452,joplin1,2021.2.3,59.993400703609076,
,1 1 1 1 0 1 0 1 1 1,2,categoryB,j,genfile1.csv,0,,,,,,,,,0,0,0,0,0,30,30,46,,,,,,,,,,,,,,,,,,,,,,,,f,0,1.0814759158529341,,,,,,,,,,,,,,,,,,,,,,,104,002,2021_Sep_29_1452,joplin1,2021.2.3,59.993400703609076,
,0 0 0 1 0 0 0 0 1 0,8,categoryA,f,genfile1.csv,0,,,,,,,,,0,0,0,0,0,31,31,24,,,,,,,,,,,,,,,,,,,,,,,,j,0,1.6280690422281623,,,,,,,,,,,,,,,,,,,,,,,104,002,2021_Sep_29_1452,joplin1,2021.2.3,59.993400703609076,
,1 1 1 1 1 1 1 0 1 1,1,categoryB,j,genfile1.csv,0,,,,,,,,,0,0,0,0,0,32,32,52,,,,,,,,,,,,,,,,,,,,,,,,j,1,0.6733779171481729,,,,,,,,,,,,,,,,,,,,,,,104,002,2021_Sep_29_1452,joplin1,2021.2.3,59.993400703609076,
,0 1 0 0 0 1 1 1 1 1,4,categoryB,j,genfile1.csv,0,,,,,,,,,0,0,0,0,0,33,33,39,,,,,,,,,,,,,,,,,,,,,,,,j,1,1.0842524161562324,,,,,,,,,,,,,,,,,,,,,,,104,002,2021_Sep_29_1452,joplin1,2021.2.3,59.993400703609076,
,0 0 0 1 0 0 1 0 0 0,8,categoryA,f,genfile1.csv,1,,,,,,,,,0,0,0,0,0,34,34,6,,,,,,,,,,,,,,,,,,,,,,,,f,1,0.8325716671533883,,,,,,,,,,,,,,,,,,,,,,,104,002,2021_Sep_29_1452,joplin1,2021.2.3,59.993400703609076,
,0 1 0 0 0 0 0 0 1 0,8,categoryA,f,genfile1.csv,1,,,,,,,,,0,0,0,0,0,35,35,3,,,,,,,,,,,,,,,,,,,,,,,,f,1,1.1829251670278609,,,,,,,,,,,,,,,,,,,,,,,104,002,2021_Sep_29_1452,joplin1,2021.2.3,59.993400703609076,
,0 1 0 0 0 0 0 1 0 0,8,categoryA,f,genfile1.csv,0,,,,,,,,,0,0,0,0,0,36,36,23,,,,,,,,,,,,,,,,,,,,,,,,f,1,0.9411649578250945,,,,,,,,,,,,,,,,,,,,,,,104,002,2021_Sep_29_1452,joplin1,2021.2.3,59.993400703609076,
,0 0 1 1 0 0 0 0 0 1,7,categoryA,f,genfile1.csv,0,,,,,,,,,0,0,0,0,0,37,37,30,,,,,,,,,,,,,,,,,,,,,,,,j,0,1.3735019997693598,,,,,,,,,,,,,,,,,,,,,,,104,002,2021_Sep_29_1452,joplin1,2021.2.3,59.993400703609076,
,0 0 1 0 0 0 0 1 0 0,8,categoryA,f,genfile1.csv,1,,,,,,,,,0,0,0,0,0,38,38,7,,,,,,,,,,,,,,,,,,,,,,,,j,0,1.1257304577156901,,,,,,,,,,,,,,,,,,,,,,,104,002,2021_Sep_29_1452,joplin1,2021.2.3,59.993400703609076,
,0 0 1 0 1 1 0 1 0 0,6,categoryA,f,genfile1.csv,1,,,,,,,,,0,0,0,0,0,39,39,4,,,,,,,,,,,,,,,,,,,,,,,,f,1,1.2086661248467863,,,,,,,,,,,,,,,,,,,,,,,104,002,2021_Sep_29_1452,joplin1,2021.2.3,59.993400703609076,
,1 1 0 1 1 1 1 0 1 1,2,categoryB,j,genfile1.csv,1,,,,,,,,,0,0,0,0,0,40,40,14,,,,,,,,,,,,,,,,,,,,,,,,j,1,1.1666069999337196,,,,,,,,,,,,,,,,,,,,,,,104,002,2021_Sep_29_1452,joplin1,2021.2.3,59.993400703609076,
,0 0 0 1 0 0 1 1 0 1,6,categoryA,f,genfile1.csv,0,,,,,,,,,0,0,0,0,0,41,41,31,,,,,,,,,,,,,,,,,,,,,,,,f,1,1.2697331672534347,,,,,,,,,,,,,,,,,,,,,,,104,002,2021_Sep_29_1452,joplin1,2021.2.3,59.993400703609076,
,1 0 1 0 1 1 1 1 0 1,3,categoryB,j,genfile1.csv,0,,,,,,,,,0,0,0,0,0,42,42,42,,,,,,,,,,,,,,,,,,,,,,,,j,1,1.6081489999778569,,,,,,,,,,,,,,,,,,,,,,,104,002,2021_Sep_29_1452,joplin1,2021.2.3,59.993400703609076,
,1 1 0 1 0 1 1 1 1 1,2,categoryB,j,genfile1.csv,0,,,,,,,,,0,0,0,0,0,43,43,49,,,,,,,,,,,,,,,,,,,,,,,,j,1,0.8781411671079695,,,,,,,,,,,,,,,,,,,,,,,104,002,2021_Sep_29_1452,joplin1,2021.2.3,59.993400703609076,
,1 0 0 0 0 0 0 0 0 1,8,categoryA,f,genfile1.csv,1,,,,,,,,,0,0,0,0,0,44,44,2,,,,,,,,,,,,,,,,,,,,,,,,f,1,0.80236312514171,,,,,,,,,,,,,,,,,,,,,,,104,002,2021_Sep_29_1452,joplin1,2021.2.3,59.993400703609076,
,0 0 0 0 0 1 0 1 1 1,6,categoryA,f,genfile1.csv,0,,,,,,,,,0,0,0,0,0,45,45,33,,,,,,,,,,,,,,,,,,,,,,,,f,1,1.776375750079751,,,,,,,,,,,,,,,,,,,,,,,104,002,2021_Sep_29_1452,joplin1,2021.2.3,59.993400703609076,
,0 1 1 0 1 1 1 1 1 1,2,categoryB,j,genfile1.csv,0,,,,,,,,,0,0,0,0,0,46,46,48,,,,,,,,,,,,,,,,,,,,,,,,j,1,0.7745451671071351,,,,,,,,,,,,,,,,,,,,,,,104,002,2021_Sep_29_1452,joplin1,2021.2.3,59.993400703609076,
,0 0 0 1 1 1 1 0 0 0,6,categoryA,f,genfile1.csv,1,,,,,,,,,0,0,0,0,0,47,47,5,,,,,,,,,,,,,,,,,,,,,,,,j,0,1.1431292919442058,,,,,,,,,,,,,,,,,,,,,,,104,002,2021_Sep_29_1452,joplin1,2021.2.3,59.993400703609076,
,1 1 1 1 1 1 1 1 1 0,1,categoryB,j,genfile1.csv,0,,,,,,,,,0,0,0,0,0,48,48,53,,,,,,,,,,,,,,,,,,,,,,,,f,0,1.776304999832064,,,,,,,,,,,,,,,,,,,,,,,104,002,2021_Sep_29_1452,joplin1,2021.2.3,59.993400703609076,
,1 1 0 0 0 0 0 0 1 1,6,categoryA,f,genfile1.csv,1,,,,,,,,,0,0,0,0,0,49,49,8,,,,,,,,,,,,,,,,,,,,,,,,f,1,0.6235257922671735,,,,,,,,,,,,,,,,,,,,,,,104,002,2021_Sep_29_1452,joplin1,2021.2.3,59.993400703609076,
,0 1 1 1 0 0 1 0 1 1,4,categoryB,j,genfile1.csv,0,,,,,,,,,0,0,0,0,0,50,50,36,,,,,,,,,,,,,,,,,,,,,,,,j,1,1.1414037495851517,,,,,,,,,,,,,,,,,,,,,,,104,002,2021_Sep_29_1452,joplin1,2021.2.3,59.993400703609076,
,1 0 1 1 1 1 1 1 1 1,1,categoryB,j,genfile1.csv,0,,,,,,,,,0,0,0,0,0,51,51,54,,,,,,,,,,,,,,,,,,,,,,,,f,0,1.0462957918643951,,,,,,,,,,,,,,,,,,,,,,,104,002,2021_Sep_29_1452,joplin1,2021.2.3,59.993400703609076,
,0 0 0 0 0 0 1 0 0 0,9,categoryA,f,genfile1.csv,0,,,,,,,,,0,0,0,0,0,52,52,17,,,,,,,,,,,,,,,,,,,,,,,,f,1,0.6980279996059835,,,,,,,,,,,,,,,,,,,,,,,104,002,2021_Sep_29_1452,joplin1,2021.2.3,59.993400703609076,
,1 0 0 0 0 0 0 0 0 0,9,categoryA,f,genfile1.csv,0,,,,,,,,,0,0,0,0,0,53,53,18,,,,,,,,,,,,,,,,,,,,,,,,j,0,1.2127364170737565,,,,,,,,,,,,,,,,,,,,,,,104,002,2021_Sep_29_1452,joplin1,2021.2.3,59.993400703609076,
,0 1 1 1 0 0 1 0 0 0,6,categoryA,f,genfile1.csv,0,,,,,,,,,0,0,0,0,0,54,54,35,,,,,,,,,,,,,,,,,,,,,,,,j,0,1.4591204589232802,,,,,,,,,,,,,,,,,,,,,,,104,002,2021_Sep_29_1452,joplin1,2021.2.3,59.993400703609076,
,1 1 1 1 1 1 1 1 1 1,0,categoryB,j,genfile1.csv,0,,,,,,,,,0,0,0,0,0,55,55,1,,,,,,,,,,,,,,,,,,,,,,,,f,0,0.8476963751018047,,,,,,,,,,,,,,,,,,,,,,,104,002,2021_Sep_29_1452,joplin1,2021.2.3,59.993400703609076,
,,,,,genfile1.csv,,,,,,,,,,0,0,0,0,,,,,,,,,,,,,,,,,,space,19.052390708122402,,,,,,,,,,,,,,,,,,,,,,,,,,,,,,,,,,104,002,2021_Sep_29_1452,joplin1,2021.2.3,59.993400703609076,
,0 0 1 0 0 0 0 1 0 0,8,categoryA,f,genfile2.csv,1,,,,,,,,,0,1,1,1,0,0,0,7,,,,,,,,,,,,,,,,,,,,,,,,j,0,1.272253958042711,,,,,,,,,,,,,,,,,,,,,,,104,002,2021_Sep_29_1452,joplin1,2021.2.3,59.993400703609076,
,0 0 1 0 0 0 0 0 0 0,9,categoryA,f,genfile2.csv,0,,,,,,,,,0,1,1,1,0,1,1,20,,,,,,,,,,,,,,,,,,,,,,,,j,0,1.9952786671929061,,,,,,,,,,,,,,,,,,,,,,,104,002,2021_Sep_29_1452,joplin1,2021.2.3,59.993400703609076,
,0 0 0 1 1 1 1 0 0 0,6,categoryA,f,genfile2.csv,1,,,,,,,,,0,1,1,1,0,2,2,5,,,,,,,,,,,,,,,,,,,,,,,,f,1,1.7310087499208748,,,,,,,,,,,,,,,,,,,,,,,104,002,2021_Sep_29_1452,joplin1,2021.2.3,59.993400703609076,
,0 0 0 0 0 0 0 1 0 1,8,categoryA,f,genfile2.csv,0,,,,,,,,,0,1,1,1,0,3,3,25,,,,,,,,,,,,,,,,,,,,,,,,f,1,1.1964215417392552,,,,,,,,,,,,,,,,,,,,,,,104,002,2021_Sep_29_1452,joplin1,2021.2.3,59.993400703609076,
,0 0 1 0 1 1 0 1 0 0,6,categoryA,f,genfile2.csv,1,,,,,,,,,0,1,1,1,0,4,4,4,,,,,,,,,,,,,,,,,,,,,,,,j,0,0.7876901249401271,,,,,,,,,,,,,,,,,,,,,,,104,002,2021_Sep_29_1452,joplin1,2021.2.3,59.993400703609076,
,0 0 0 1 0 1 0 0 0 0,8,categoryA,f,genfile2.csv,0,,,,,,,,,0,1,1,1,0,5,5,24,,,,,,,,,,,,,,,,,,,,,,,,j,0,0.8423034590668976,,,,,,,,,,,,,,,,,,,,,,,104,002,2021_Sep_29_1452,joplin1,2021.2.3,59.993400703609076,
,0 1 1 0 1 1 0 1 0 1,4,categoryB,j,genfile2.csv,0,,,,,,,,,0,1,1,1,0,6,6,36,,,,,,,,,,,,,,,,,,,,,,,,j,1,0.9586261250078678,,,,,,,,,,,,,,,,,,,,,,,104,002,2021_Sep_29_1452,joplin1,2021.2.3,59.993400703609076,
,1 0 1 1 1 1 1 1 0 1,2,categoryB,j,genfile2.csv,1,,,,,,,,,0,1,1,1,0,7,7,10,,,,,,,,,,,,,,,,,,,,,,,,f,0,0.838835708796978,,,,,,,,,,,,,,,,,,,,,,,104,002,2021_Sep_29_1452,joplin1,2021.2.3,59.993400703609076,
,0 0 1 0 0 0 1 0 0 0,8,categoryA,f,genfile2.csv,0,,,,,,,,,0,1,1,1,0,8,8,21,,,,,,,,,,,,,,,,,,,,,,,,j,0,1.603477583732456,,,,,,,,,,,,,,,,,,,,,,,104,002,2021_Sep_29_1452,joplin1,2021.2.3,59.993400703609076,
,0 0 1 1 0 0 0 0 1 1,6,categoryA,f,genfile2.csv,0,,,,,,,,,0,1,1,1,0,9,9,31,,,,,,,,,,,,,,,,,,,,,,,,j,0,0.9048710004426539,,,,,,,,,,,,,,,,,,,,,,,104,002,2021_Sep_29_1452,joplin1,2021.2.3,59.993400703609076,
,1 1 1 0 0 0 1 1 1 1,3,categoryB,j,genfile2.csv,0,,,,,,,,,0,1,1,1,0,10,10,43,,,,,,,,,,,,,,,,,,,,,,,,f,0,1.1550136250443757,,,,,,,,,,,,,,,,,,,,,,,104,002,2021_Sep_29_1452,joplin1,2021.2.3,59.993400703609076,
,0 0 0 0 0 0 0 1 1 1,7,categoryA,f,genfile2.csv,0,,,,,,,,,0,1,1,1,0,11,11,30,,,,,,,,,,,,,,,,,,,,,,,,j,0,1.010259292088449,,,,,,,,,,,,,,,,,,,,,,,104,002,2021_Sep_29_1452,joplin1,2021.2.3,59.993400703609076,
,0 0 0 1 0 0 1 0 0 0,8,categoryA,f,genfile2.csv,1,,,,,,,,,0,1,1,1,0,12,12,6,,,,,,,,,,,,,,,,,,,,,,,,f,1,0.9050320419482887,,,,,,,,,,,,,,,,,,,,,,,104,002,2021_Sep_29_1452,joplin1,2021.2.3,59.993400703609076,
,1 1 1 1 1 0 0 1 1 1,2,categoryB,j,genfile2.csv,0,,,,,,,,,0,1,1,1,0,13,13,47,,,,,,,,,,,,,,,,,,,,,,,,f,0,0.7860832922160625,,,,,,,,,,,,,,,,,,,,,,,104,002,2021_Sep_29_1452,joplin1,2021.2.3,59.993400703609076,
,1 1 1 1 1 1 1 1 0 1,1,categoryB,j,genfile2.csv,0,,,,,,,,,0,1,1,1,0,14,14,52,,,,,,,,,,,,,,,,,,,,,,,,j,1,1.3616449171677232,,,,,,,,,,,,,,,,,,,,,,,104,002,2021_Sep_29_1452,joplin1,2021.2.3,59.993400703609076,
,0 1 0 0 0 0 0 0 1 0,8,categoryA,f,genfile2.csv,1,,,,,,,,,0,1,1,1,0,15,15,3,,,,,,,,,,,,,,,,,,,,,,,,f,1,1.265963959041983,,,,,,,,,,,,,,,,,,,,,,,104,002,2021_Sep_29_1452,joplin1,2021.2.3,59.993400703609076,
,1 1 0 1 1 1 1 0 0 0,4,categoryB,j,genfile2.csv,0,,,,,,,,,0,1,1,1,0,16,16,37,,,,,,,,,,,,,,,,,,,,,,,,f,0,0.837582207750529,,,,,,,,,,,,,,,,,,,,,,,104,002,2021_Sep_29_1452,joplin1,2021.2.3,59.993400703609076,
,1 1 1 0 1 1 1 1 1 1,1,categoryB,j,genfile2.csv,0,,,,,,,,,0,1,1,1,0,17,17,53,,,,,,,,,,,,,,,,,,,,,,,,j,1,1.2493197922594845,,,,,,,,,,,,,,,,,,,,,,,104,002,2021_Sep_29_1452,joplin1,2021.2.3,59.993400703609076,
,1 1 0 1 1 1 0 0 1 1,3,categoryB,j,genfile2.csv,0,,,,,,,,,0,1,1,1,0,18,18,44,,,,,,,,,,,,,,,,,,,,,,,,f,0,1.1330055827274919,,,,,,,,,,,,,,,,,,,,,,,104,002,2021_Sep_29_1452,joplin1,2021.2.3,59.993400703609076,
,1 1 1 0 0 0 0 1 1 1,4,categoryB,j,genfile2.csv,1,,,,,,,,,0,1,1,1,0,19,19,12,,,,,,,,,,,,,,,,,,,,,,,,j,1,1.1350199580192566,,,,,,,,,,,,,,,,,,,,,,,104,002,2021_Sep_29_1452,joplin1,2021.2.3,59.993400703609076,
,1 0 1 0 1 0 1 0 0 0,6,categoryA,f,genfile2.csv,0,,,,,,,,,0,1,1,1,0,20,20,34,,,,,,,,,,,,,,,,,,,,,,,,f,1,0.9832895002327859,,,,,,,,,,,,,,,,,,,,,,,104,002,2021_Sep_29_1452,joplin1,2021.2.3,59.993400703609076,
,0 0 0 0 0 0 0 1 0 0,9,categoryA,f,genfile2.csv,0,,,,,,,,,0,1,1,1,0,21,21,17,,,,,,,,,,,,,,,,,,,,,,,,j,0,1.3984987502917647,,,,,,,,,,,,,,,,,,,,,,,104,002,2021_Sep_29_1452,joplin1,2021.2.3,59.993400703609076,
,1 1 0 1 1 0 1 1 1 1,2,categoryB,j,genfile2.csv,0,,,,,,,,,0,1,1,1,0,22,22,50,,,,,,,,,,,,,,,,,,,,,,,,f,0,1.2696531252004206,,,,,,,,,,,,,,,,,,,,,,,104,002,2021_Sep_29_1452,joplin1,2021.2.3,59.993400703609076,
,1 1 1 1 1 1 1 0 1 0,2,categoryB,j,genfile2.csv,0,,,,,,,,,0,1,1,1,0,23,23,48,,,,,,,,,,,,,,,,,,,,,,,,f,0,0.9682565410621464,,,,,,,,,,,,,,,,,,,,,,,104,002,2021_Sep_29_1452,joplin1,2021.2.3,59.993400703609076,
,1 1 1 0 1 1 0 1 1 1,2,categoryB,j,genfile2.csv,1,,,,,,,,,0,1,1,1,0,24,24,13,,,,,,,,,,,,,,,,,,,,,,,,f,0,1.0080486251972616,,,,,,,,,,,,,,,,,,,,,,,104,002,2021_Sep_29_1452,joplin1,2021.2.3,59.993400703609076,
,0 0 0 1 0 0 0 0 0 0,9,categoryA,f,genfile2.csv,0,,,,,,,,,0,1,1,1,0,25,25,16,,,,,,,,,,,,,,,,,,,,,,,,j,0,0.6865044166333973,,,,,,,,,,,,,,,,,,,,,,,104,002,2021_Sep_29_1452,joplin1,2021.2.3,59.993400703609076,
,1 0 0 0 0 0 1 0 0 1,7,categoryA,f,genfile2.csv,0,,,,,,,,,0,1,1,1,0,26,26,28,,,,,,,,,,,,,,,,,,,,,,,,j,0,0.7610425422899425,,,,,,,,,,,,,,,,,,,,,,,104,002,2021_Sep_29_1452,joplin1,2021.2.3,59.993400703609076,
,1 1 0 1 0 0 1 0 1 1,4,categoryB,j,genfile2.csv,1,,,,,,,,,0,1,1,1,0,27,27,11,,,,,,,,,,,,,,,,,,,,,,,,f,0,0.6722832079976797,,,,,,,,,,,,,,,,,,,,,,,104,002,2021_Sep_29_1452,joplin1,2021.2.3,59.993400703609076,
,1 0 0 0 1 1 0 1 1 1,4,categoryB,j,genfile2.csv,0,,,,,,,,,0,1,1,1,0,28,28,40,,,,,,,,,,,,,,,,,,,,,,,,f,0,1.2764090420678258,,,,,,,,,,,,,,,,,,,,,,,104,002,2021_Sep_29_1452,joplin1,2021.2.3,59.993400703609076,
,1 0 1 1 1 0 1 1 1 1,2,categoryB,j,genfile2.csv,0,,,,,,,,,0,1,1,1,0,29,29,46,,,,,,,,,,,,,,,,,,,,,,,,j,1,0.9516307497397065,,,,,,,,,,,,,,,,,,,,,,,104,002,2021_Sep_29_1452,joplin1,2021.2.3,59.993400703609076,
,1 1 0 1 1 1 1 0 1 1,2,categoryB,j,genfile2.csv,1,,,,,,,,,0,1,1,1,0,30,30,14,,,,,,,,,,,,,,,,,,,,,,,,f,0,1.2482948750257492,,,,,,,,,,,,,,,,,,,,,,,104,002,2021_Sep_29_1452,joplin1,2021.2.3,59.993400703609076,
,1 1 1 1 1 1 1 1 1 1,0,categoryB,j,genfile2.csv,0,,,,,,,,,0,1,1,1,0,31,31,1,,,,,,,,,,,,,,,,,,,,,,,,f,0,0.24534483393654227,,,,,,,,,,,,,,,,,,,,,,,104,002,2021_Sep_29_1452,joplin1,2021.2.3,59.993400703609076,
,0 1 1 1 1 1 1 1 1 0,2,categoryB,j,genfile2.csv,1,,,,,,,,,0,1,1,1,0,32,32,9,,,,,,,,,,,,,,,,,,,,,,,,j,1,0.5154613750055432,,,,,,,,,,,,,,,,,,,,,,,104,002,2021_Sep_29_1452,joplin1,2021.2.3,59.993400703609076,
,0 0 1 0 1 0 0 1 0 0,7,categoryA,f,genfile2.csv,0,,,,,,,,,0,1,1,1,0,33,33,29,,,,,,,,,,,,,,,,,,,,,,,,f,1,0.7244273331016302,,,,,,,,,,,,,,,,,,,,,,,104,002,2021_Sep_29_1452,joplin1,2021.2.3,59.993400703609076,
,0 0 1 0 0 0 0 0 1 0,8,categoryA,f,genfile2.csv,0,,,,,,,,,0,1,1,1,0,34,34,22,,,,,,,,,,,,,,,,,,,,,,,,j,0,1.0546893747523427,,,,,,,,,,,,,,,,,,,,,,,104,002,2021_Sep_29_1452,joplin1,2021.2.3,59.993400703609076,
,1 0 1 0 1 0 1 1 1 1,3,categoryB,j,genfile2.csv,0,,,,,,,,,0,1,1,1,0,35,35,41,,,,,,,,,,,,,,,,,,,,,,,,f,0,1.018874832894653,,,,,,,,,,,,,,,,,,,,,,,104,002,2021_Sep_29_1452,joplin1,2021.2.3,59.993400703609076,
,0 0 0 0 0 0 0 0 1 0,9,categoryA,f,genfile2.csv,0,,,,,,,,,0,1,1,1,0,36,36,19,,,,,,,,,,,,,,,,,,,,,,,,f,1,0.8011547499336302,,,,,,,,,,,,,,,,,,,,,,,104,002,2021_Sep_29_1452,joplin1,2021.2.3,59.993400703609076,
,0 1 0 0 0 0 0 0 0 0,9,categoryA,f,genfile2.csv,0,,,,,,,,,0,1,1,1,0,37,37,18,,,,,,,,,,,,,,,,,,,,,,,,j,0,0.6225645421072841,,,,,,,,,,,,,,,,,,,,,,,104,002,2021_Sep_29_1452,joplin1,2021.2.3,59.993400703609076,
,1 1 1 1 0 1 1 1 1 1,1,categoryB,j,genfile2.csv,0,,,,,,,,,0,1,1,1,0,38,38,51,,,,,,,,,,,,,,,,,,,,,,,,j,1,1.099579124711454,,,,,,,,,,,,,,,,,,,,,,,104,002,2021_Sep_29_1452,joplin1,2021.2.3,59.993400703609076,
,0 0 0 0 0 1 0 0 0 1,8,categoryA,f,genfile2.csv,0,,,,,,,,,0,1,1,1,0,39,39,23,,,,,,,,,,,,,,,,,,,,,,,,f,1,0.9512210828252137,,,,,,,,,,,,,,,,,,,,,,,104,002,2021_Sep_29_1452,joplin1,2021.2.3,59.993400703609076,
,0 1 1 0 1 0 0 1 0 0,6,categoryA,f,genfile2.csv,0,,,,,,,,,0,1,1,1,0,40,40,33,,,,,,,,,,,,,,,,,,,,,,,,j,0,1.3100381661206484,,,,,,,,,,,,,,,,,,,,,,,104,002,2021_Sep_29_1452,joplin1,2021.2.3,59.993400703609076,
,1 1 0 0 0 0 0 0 1 1,6,categoryA,f,genfile2.csv,1,,,,,,,,,0,1,1,1,0,41,41,8,,,,,,,,,,,,,,,,,,,,,,,,f,1,1.4889054172672331,,,,,,,,,,,,,,,,,,,,,,,104,002,2021_Sep_29_1452,joplin1,2021.2.3,59.993400703609076,
,1 0 0 0 0 1 0 0 1 0,7,categoryA,f,genfile2.csv,0,,,,,,,,,0,1,1,1,0,42,42,26,,,,,,,,,,,,,,,,,,,,,,,,j,0,1.4915421246550977,,,,,,,,,,,,,,,,,,,,,,,104,002,2021_Sep_29_1452,joplin1,2021.2.3,59.993400703609076,
,1 0 0 0 0 0 0 0 0 1,8,categoryA,f,genfile2.csv,1,,,,,,,,,0,1,1,1,0,43,43,2,,,,,,,,,,,,,,,,,,,,,,,,j,0,1.0861531253904104,,,,,,,,,,,,,,,,,,,,,,,104,002,2021_Sep_29_1452,joplin1,2021.2.3,59.993400703609076,
,1 0 1 0 1 0 1 1 1 0,4,categoryB,j,genfile2.csv,0,,,,,,,,,0,1,1,1,0,44,44,39,,,,,,,,,,,,,,,,,,,,,,,,j,1,1.3694112501107156,,,,,,,,,,,,,,,,,,,,,,,104,002,2021_Sep_29_1452,joplin1,2021.2.3,59.993400703609076,
,0 0 0 0 0 0 0 0 0 0,10,categoryA,f,genfile2.csv,0,,,,,,,,,0,1,1,1,0,45,45,0,,,,,,,,,,,,,,,,,,,,,,,,f,1,0.3776026670821011,,,,,,,,,,,,,,,,,,,,,,,104,002,2021_Sep_29_1452,joplin1,2021.2.3,59.993400703609076,
,0 1 0 0 0 0 0 1 1 1,6,categoryA,f,genfile2.csv,0,,,,,,,,,0,1,1,1,0,46,46,32,,,,,,,,,,,,,,,,,,,,,,,,f,1,1.1940029999241233,,,,,,,,,,,,,,,,,,,,,,,104,002,2021_Sep_29_1452,joplin1,2021.2.3,59.993400703609076,
,1 1 0 0 1 1 1 1 0 1,3,categoryB,j,genfile2.csv,0,,,,,,,,,0,1,1,1,0,47,47,45,,,,,,,,,,,,,,,,,,,,,,,,j,1,1.2641151249408722,,,,,,,,,,,,,,,,,,,,,,,104,002,2021_Sep_29_1452,joplin1,2021.2.3,59.993400703609076,
,1 1 1 1 0 0 1 0 1 1,3,categoryB,j,genfile2.csv,0,,,,,,,,,0,1,1,1,0,48,48,42,,,,,,,,,,,,,,,,,,,,,,,,f,0,1.467350207734853,,,,,,,,,,,,,,,,,,,,,,,104,002,2021_Sep_29_1452,joplin1,2021.2.3,59.993400703609076,
,0 0 1 0 1 0 1 1 1 1,4,categoryB,j,genfile2.csv,0,,,,,,,,,0,1,1,1,0,49,49,38,,,,,,,,,,,,,,,,,,,,,,,,f,0,0.9207649156451225,,,,,,,,,,,,,,,,,,,,,,,104,002,2021_Sep_29_1452,joplin1,2021.2.3,59.993400703609076,
,1 1 1 1 1 0 1 1 1 1,1,categoryB,j,genfile2.csv,0,,,,,,,,,0,1,1,1,0,50,50,55,,,,,,,,,,,,,,,,,,,,,,,,j,1,1.0338651249185205,,,,,,,,,,,,,,,,,,,,,,,104,002,2021_Sep_29_1452,joplin1,2021.2.3,59.993400703609076,
,0 1 1 1 1 1 1 1 0 1,2,categoryB,j,genfile2.csv,0,,,,,,,,,0,1,1,1,0,51,51,49,,,,,,,,,,,,,,,,,,,,,,,,j,1,0.8155639581382275,,,,,,,,,,,,,,,,,,,,,,,104,002,2021_Sep_29_1452,joplin1,2021.2.3,59.993400703609076,
,0 0 1 1 1 1 1 1 0 0,4,categoryB,j,genfile2.csv,1,,,,,,,,,0,1,1,1,0,52,52,15,,,,,,,,,,,,,,,,,,,,,,,,j,1,0.9576479159295559,,,,,,,,,,,,,,,,,,,,,,,104,002,2021_Sep_29_1452,joplin1,2021.2.3,59.993400703609076,
,1 1 1 0 1 0 0 0 0 0,6,categoryA,f,genfile2.csv,0,,,,,,,,,0,1,1,1,0,53,53,35,,,,,,,,,,,,,,,,,,,,,,,,f,1,0.7015884998254478,,,,,,,,,,,,,,,,,,,,,,,104,002,2021_Sep_29_1452,joplin1,2021.2.3,59.993400703609076,
,1 1 0 0 1 0 0 0 0 0,7,categoryA,f,genfile2.csv,0,,,,,,,,,0,1,1,1,0,54,54,27,,,,,,,,,,,,,,,,,,,,,,,,j,0,1.7755134170874953,,,,,,,,,,,,,,,,,,,,,,,104,002,2021_Sep_29_1452,joplin1,2021.2.3,59.993400703609076,
,1 1 1 1 1 1 0 1 1 1,1,categoryB,j,genfile2.csv,0,,,,,,,,,0,1,1,1,0,55,55,54,,,,,,,,,,,,,,,,,,,,,,,,j,1,1.3029591250233352,,,,,,,,,,,,,,,,,,,,,,,104,002,2021_Sep_29_1452,joplin1,2021.2.3,59.993400703609076,
,,,,,genfile2.csv,,,,,,,,,,0,1,1,1,,,,,,,,,,,,,,,,,,space,3.120695167221129,,,,,,,,,,,,,,,,,,,,,,,,,,,,,,,,,,104,002,2021_Sep_29_1452,joplin1,2021.2.3,59.993400703609076,
,,,,,,,,,,,,,,,,,,,,,,,,,,,,,,,,,,,,,,,,,,,,,,,,,space,5.1554637919180095,,,,,,,,,,,,,,,,,,,,,104,002,2021_Sep_29_1452,joplin1,2021.2.3,59.993400703609076,
,,,,,,,,,,,,,,,,,,,,,,,,,,,,,,,,,,,,,,,,,,,,,,,,,,,return,24.132309082895517,,,,,,,,,,,,,,,,,,,104,002,2021_Sep_29_1452,joplin1,2021.2.3,59.993400703609076,
,,,,,,,,,,,,,,,,,,,,,,,,,,,,,,,,,,,,,,,,,,,,,,,,,,,,,0.7,radio,0.3,Are you Hispanic/Latino?,0,None,None,no,4.162205041851848,,,,,,,,,,104,002,2021_Sep_29_1452,joplin1,2021.2.3,59.993400703609076,
,,,,,,,,,,,,,,,,,,,,,,,,,,,,,,,,,,,,,,,,,,,,,,,,,,,,,0.7,radio,0.3,Are you an American Indian or Alaska Native?,1,None,None,no,21.524071875028312,,,,,,,,,,104,002,2021_Sep_29_1452,joplin1,2021.2.3,59.993400703609076,
,,,,,,,,,,,,,,,,,,,,,,,,,,,,,,,,,,,,,,,,,,,,,,,,,,,,,0.7,radio,0.3,Are you Asian?,2,None,None,yes,24.002129583153874,,,,,,,,,,104,002,2021_Sep_29_1452,joplin1,2021.2.3,59.993400703609076,
,,,,,,,,,,,,,,,,,,,,,,,,,,,,,,,,,,,,,,,,,,,,,,,,,,,,,0.7,radio,0.3,Are you Black or African American?,3,None,None,no,71.16257433313876,,,,,,,,,,104,002,2021_Sep_29_1452,joplin1,2021.2.3,59.993400703609076,
,,,,,,,,,,,,,,,,,,,,,,,,,,,,,,,,,,,,,,,,,,,,,,,,,,,,,0.7,radio,0.3,Are you a Native Hawaiian or other Pacific Islander?,4,None,None,no,38.27010745787993,,,,,,,,,,104,002,2021_Sep_29_1452,joplin1,2021.2.3,59.993400703609076,
,,,,,,,,,,,,,,,,,,,,,,,,,,,,,,,,,,,,,,,,,,,,,,,,,,,,,0.7,radio,0.3,Are you White?,5,None,None,no,18.904925875365734,,,,,,,,,,104,002,2021_Sep_29_1452,joplin1,2021.2.3,59.993400703609076,
,,,,,,,,,,,,,,,,,,,,,,,,,,,,,,,,,,,,,,,,,,,,,,,,,,,,,0.85,radio,0.3,"Do you have any history of neurological issues such as stroke, head injury or a neurodegenerative disorder?",6,None,None,no,12.797387958038598,,,,,,,,,,104,002,2021_Sep_29_1452,joplin1,2021.2.3,59.993400703609076,
,,,,,,,,,,,,,,,,,,,,,,,,,,,,,,,,,,,,,,,,,,,,,,,,,,,,,,,,,,,,,,return,94.60951650002971,,,,,,,,104,002,2021_Sep_29_1452,joplin1,2021.2.3,59.993400703609076,
,,,,,,,,,,,,,,,,,,,,,,,,,,,,,,,,,,,,,,,,,,,,,,,,,,,,,,,,,,,,,,,,return,7.753377125132829,,,,,,104,002,2021_Sep_29_1452,joplin1,2021.2.3,59.993400703609076,
,,,,,,,,,,,,,,,,,,,,,,,,,,,,,,,,,,,,,,,,,,,,,,,,,,,,,,,,,,,,,,,,,,female,18,y,4.467869124840945,,104,002,2021_Sep_29_1452,joplin1,2021.2.3,59.993400703609076,
,,,,,,,,,,,,,,,,,,,,,,,,,,,,,,,,,,,,,,,,,,,,,,,,,,,,,,,,,,,,,,,,,,,,,,1,,,,,,,
