train_set,stim_id,sums_feat,category,correct_key,gen_file,train_item,train_runs.thisRepN,train_runs.thisTrialN,train_runs.thisN,train_runs.thisIndex,train_trials.thisRepN,train_trials.thisTrialN,train_trials.thisN,train_trials.thisIndex,test_runs.thisRepN,test_runs.thisTrialN,test_runs.thisN,test_runs.thisIndex,test_trials.thisRepN,test_trials.thisTrialN,test_trials.thisN,test_trials.thisIndex,welcome_key.keys,welcome_key.rt,welcome_key.started,welcome_key.stopped,train_inst1_key.keys,train_inst1_key.rt,train_inst2_key.keys,train_inst2_key.rt,train_begin_key.keys,train_begin_key.rt,train_key.keys,train_key.corr,train_key.rt,break_key.keys,break_key.rt,key_resp.keys,key_resp.rt,test_inst1_key.keys,test_inst1_key.rt,test_inst2_key.keys,test_inst2_key.rt,test_begin_key.keys,test_begin_key.rt,test_key.keys,test_key.corr,test_key.rt,test_end_key.keys,test_end_key.rt,demo_inst1_key.keys,demo_inst1_key.rt,form.questionWidth,form.type,form.respWidth,form.itemText,form.index,form.font,form.markerColor,form.response,form.rt,form_key.keys,form_key.rt,demo_inst2_key.keys,demo_inst2_key.rt,gender_string,age_string,demo4_key.keys,demo4_key.rt,typedWord,participant,session,date,expName,psychopyVersion,frameRate,
,,,,,,,,,,,,,,,,,,,,,,,space,43.95820004097186,12.564076917013153,None,,,,,,,,,,,,,,,,,,,,,,,,,,,,,,,,,,,,,,,,,,,,,105,002,2021_Sep_29_1602,joplin1,2021.2.3,60.006030477342456,
,,,,,,,,,,,,,,,,,,,,,,,,,,,f,9.466090624919161,,,,,,,,,,,,,,,,,,,,,,,,,,,,,,,,,,,,,,,,,,,105,002,2021_Sep_29_1602,joplin1,2021.2.3,60.006030477342456,
,,,,,,,,,,,,,,,,,,,,,,,,,,,,,space,8.249387957970612,,,,,,,,,,,,,,,,,,,,,,,,,,,,,,,,,,,,,,,,,105,002,2021_Sep_29_1602,joplin1,2021.2.3,60.006030477342456,
,,,,,,,,,,,,,,,,,,,,,,,,,,,,,,,space,3.5105623330455273,,,,,,,,,,,,,,,,,,,,,,,,,,,,,,,,,,,,,,,105,002,2021_Sep_29_1602,joplin1,2021.2.3,60.006030477342456,
_train_cond.csv,0 0 1 0 0 0 0 1 0 0,2,categoryB,j,,,0,0,0,7,0,0,0,12,,,,,,,,,,,,,,,,,,,j,1,0.10901416605338454,,,,,,,,,,,,,,,,,,,,,,,,,,,,,,,,,,,,105,002,2021_Sep_29_1602,joplin1,2021.2.3,60.006030477342456,
_train_cond.csv,1 1 1 0 1 1 0 1 1 1,8,categoryA,f,,,0,0,0,7,0,1,1,4,,,,,,,,,,,,,,,,,,,f,1,0.11377058294601738,,,,,,,,,,,,,,,,,,,,,,,,,,,,,,,,,,,,105,002,2021_Sep_29_1602,joplin1,2021.2.3,60.006030477342456,
_train_cond.csv,0 0 0 1 1 1 1 0 0 0,4,categoryB,j,,,0,0,0,7,0,2,2,10,,,,,,,,,,,,,,,,,,,f,0,0.0405627079308033,,,,,,,,,,,,,,,,,,,,,,,,,,,,,,,,,,,,105,002,2021_Sep_29_1602,joplin1,2021.2.3,60.006030477342456,
_train_cond.csv,0 0 0 1 0 0 1 0 0 0,2,categoryB,j,,,0,0,0,7,0,3,3,11,,,,,,,,,,,,,,,,,,,f,0,0.3944331669481471,,,,,,,,,,,,,,,,,,,,,,,,,,,,,,,,,,,,105,002,2021_Sep_29_1602,joplin1,2021.2.3,60.006030477342456,
_train_cond.csv,0 1 0 0 0 0 0 0 1 0,2,categoryB,j,,,0,0,0,7,0,4,4,8,,,,,,,,,,,,,,,,,,,j,1,0.27304687490686774,,,,,,,,,,,,,,,,,,,,,,,,,,,,,,,,,,,,105,002,2021_Sep_29_1602,joplin1,2021.2.3,60.006030477342456,
_train_cond.csv,0 1 1 1 1 1 1 1 1 0,8,categoryA,f,,,0,0,0,7,0,5,5,0,,,,,,,,,,,,,,,,,,,j,0,0.0005213750991970301,,,,,,,,,,,,,,,,,,,,,,,,,,,,,,,,,,,,105,002,2021_Sep_29_1602,joplin1,2021.2.3,60.006030477342456,
_train_cond.csv,1 0 1 1 1 1 1 1 0 1,8,categoryA,f,,,0,0,0,7,0,6,6,1,,,,,,,,,,,,,,,,,,,f,1,0.4580404580337927,,,,,,,,,,,,,,,,,,,,,,,,,,,,,,,,,,,,105,002,2021_Sep_29_1602,joplin1,2021.2.3,60.006030477342456,
_train_cond.csv,1 0 0 0 0 0 0 0 0 1,2,categoryB,j,,,0,0,0,7,0,7,7,7,,,,,,,,,,,,,,,,,,,j,1,0.056622167001478374,,,,,,,,,,,,,,,,,,,,,,,,,,,,,,,,,,,,105,002,2021_Sep_29_1602,joplin1,2021.2.3,60.006030477342456,
_train_cond.csv,1 1 0 1 0 0 1 0 1 1,6,categoryA,f,,,0,0,0,7,0,8,8,2,,,,,,,,,,,,,,,,,,,j,0,0.14492562506347895,,,,,,,,,,,,,,,,,,,,,,,,,,,,,,,,,,,,105,002,2021_Sep_29_1602,joplin1,2021.2.3,60.006030477342456,
_train_cond.csv,1 1 0 0 0 0 0 0 1 1,4,categoryB,j,,,0,0,0,7,0,9,9,13,,,,,,,,,,,,,,,,,,,j,1,1.7984747920418158,,,,,,,,,,,,,,,,,,,,,,,,,,,,,,,,,,,,105,002,2021_Sep_29_1602,joplin1,2021.2.3,60.006030477342456,
_train_cond.csv,0 0 1 1 1 1 1 1 0 0,6,categoryA,f,,,0,0,0,7,0,10,10,6,,,,,,,,,,,,,,,,,,,j,0,0.08895587490405887,,,,,,,,,,,,,,,,,,,,,,,,,,,,,,,,,,,,105,002,2021_Sep_29_1602,joplin1,2021.2.3,60.006030477342456,
_train_cond.csv,0 0 1 0 1 1 0 1 0 0,4,categoryB,j,,,0,0,0,7,0,11,11,9,,,,,,,,,,,,,,,,,,,j,1,0.3684630000498146,,,,,,,,,,,,,,,,,,,,,,,,,,,,,,,,,,,,105,002,2021_Sep_29_1602,joplin1,2021.2.3,60.006030477342456,
_train_cond.csv,1 1 1 0 0 0 0 1 1 1,6,categoryA,f,,,0,0,0,7,0,12,12,3,,,,,,,,,,,,,,,,,,,f,1,0.6129295839928091,,,,,,,,,,,,,,,,,,,,,,,,,,,,,,,,,,,,105,002,2021_Sep_29_1602,joplin1,2021.2.3,60.006030477342456,
_train_cond.csv,1 1 0 1 1 1 1 0 1 1,8,categoryA,f,,,0,0,0,7,0,13,13,5,,,,,,,,,,,,,,,,,,,j,0,1.561159042059444,,,,,,,,,,,,,,,,,,,,,,,,,,,,,,,,,,,,105,002,2021_Sep_29_1602,joplin1,2021.2.3,60.006030477342456,
_train_cond.csv,1 0 0 0 0 0 0 0 0 1,2,categoryB,j,,,0,0,0,7,1,0,14,7,,,,,,,,,,,,,,,,,,,j,1,2.0964281669585034,,,,,,,,,,,,,,,,,,,,,,,,,,,,,,,,,,,,105,002,2021_Sep_29_1602,joplin1,2021.2.3,60.006030477342456,
_train_cond.csv,0 0 1 1 1 1 1 1 0 0,6,categoryA,f,,,0,0,0,7,1,1,15,6,,,,,,,,,,,,,,,,,,,f,1,0.6103384579764679,,,,,,,,,,,,,,,,,,,,,,,,,,,,,,,,,,,,105,002,2021_Sep_29_1602,joplin1,2021.2.3,60.006030477342456,
_train_cond.csv,0 0 0 1 0 0 1 0 0 0,2,categoryB,j,,,0,0,0,7,1,2,16,11,,,,,,,,,,,,,,,,,,,j,1,0.7359171670395881,,,,,,,,,,,,,,,,,,,,,,,,,,,,,,,,,,,,105,002,2021_Sep_29_1602,joplin1,2021.2.3,60.006030477342456,
_train_cond.csv,0 0 1 0 1 1 0 1 0 0,4,categoryB,j,,,0,0,0,7,1,3,17,9,,,,,,,,,,,,,,,,,,,f,0,0.8781240420648828,,,,,,,,,,,,,,,,,,,,,,,,,,,,,,,,,,,,105,002,2021_Sep_29_1602,joplin1,2021.2.3,60.006030477342456,
_train_cond.csv,1 0 1 1 1 1 1 1 0 1,8,categoryA,f,,,0,0,0,7,1,4,18,1,,,,,,,,,,,,,,,,,,,j,0,0.608940584002994,,,,,,,,,,,,,,,,,,,,,,,,,,,,,,,,,,,,105,002,2021_Sep_29_1602,joplin1,2021.2.3,60.006030477342456,
_train_cond.csv,1 1 1 0 0 0 0 1 1 1,6,categoryA,f,,,0,0,0,7,1,5,19,3,,,,,,,,,,,,,,,,,,,j,0,0.023110541980713606,,,,,,,,,,,,,,,,,,,,,,,,,,,,,,,,,,,,105,002,2021_Sep_29_1602,joplin1,2021.2.3,60.006030477342456,
_train_cond.csv,0 0 0 1 1 1 1 0 0 0,4,categoryB,j,,,0,0,0,7,1,6,20,10,,,,,,,,,,,,,,,,,,,j,1,1.4997202920494601,,,,,,,,,,,,,,,,,,,,,,,,,,,,,,,,,,,,105,002,2021_Sep_29_1602,joplin1,2021.2.3,60.006030477342456,
_train_cond.csv,1 1 0 0 0 0 0 0 1 1,4,categoryB,j,,,0,0,0,7,1,7,21,13,,,,,,,,,,,,,,,,,,,f,0,1.6701966660330072,,,,,,,,,,,,,,,,,,,,,,,,,,,,,,,,,,,,105,002,2021_Sep_29_1602,joplin1,2021.2.3,60.006030477342456,
_train_cond.csv,1 1 1 0 1 1 0 1 1 1,8,categoryA,f,,,0,0,0,7,1,8,22,4,,,,,,,,,,,,,,,,,,,j,0,2.0395257089985535,,,,,,,,,,,,,,,,,,,,,,,,,,,,,,,,,,,,105,002,2021_Sep_29_1602,joplin1,2021.2.3,60.006030477342456,
_train_cond.csv,0 1 0 0 0 0 0 0 1 0,2,categoryB,j,,,0,0,0,7,1,9,23,8,,,,,,,,,,,,,,,,,,,j,1,2.178595417062752,,,,,,,,,,,,,,,,,,,,,,,,,,,,,,,,,,,,105,002,2021_Sep_29_1602,joplin1,2021.2.3,60.006030477342456,
_train_cond.csv,0 0 1 0 0 0 0 1 0 0,2,categoryB,j,,,0,0,0,7,1,10,24,12,,,,,,,,,,,,,,,,,,,j,1,0.4324038749327883,,,,,,,,,,,,,,,,,,,,,,,,,,,,,,,,,,,,105,002,2021_Sep_29_1602,joplin1,2021.2.3,60.006030477342456,
_train_cond.csv,1 1 0 1 0 0 1 0 1 1,6,categoryA,f,,,0,0,0,7,1,11,25,2,,,,,,,,,,,,,,,,,,,f,1,1.0138251669704914,,,,,,,,,,,,,,,,,,,,,,,,,,,,,,,,,,,,105,002,2021_Sep_29_1602,joplin1,2021.2.3,60.006030477342456,
_train_cond.csv,1 1 0 1 1 1 1 0 1 1,8,categoryA,f,,,0,0,0,7,1,12,26,5,,,,,,,,,,,,,,,,,,,j,0,0.7958127909805626,,,,,,,,,,,,,,,,,,,,,,,,,,,,,,,,,,,,105,002,2021_Sep_29_1602,joplin1,2021.2.3,60.006030477342456,
_train_cond.csv,0 1 1 1 1 1 1 1 1 0,8,categoryA,f,,,0,0,0,7,1,13,27,0,,,,,,,,,,,,,,,,,,,j,0,1.3050191249931231,,,,,,,,,,,,,,,,,,,,,,,,,,,,,,,,,,,,105,002,2021_Sep_29_1602,joplin1,2021.2.3,60.006030477342456,
_train_cond.csv,0 0 0 1 0 0 1 0 0 0,2,categoryB,j,,,0,0,0,7,2,0,28,11,,,,,,,,,,,,,,,,,,,j,1,1.378720249980688,,,,,,,,,,,,,,,,,,,,,,,,,,,,,,,,,,,,105,002,2021_Sep_29_1602,joplin1,2021.2.3,60.006030477342456,
_train_cond.csv,1 1 0 1 1 1 1 0 1 1,8,categoryA,f,,,0,0,0,7,2,1,29,5,,,,,,,,,,,,,,,,,,,j,0,1.2248932090587914,,,,,,,,,,,,,,,,,,,,,,,,,,,,,,,,,,,,105,002,2021_Sep_29_1602,joplin1,2021.2.3,60.006030477342456,
_train_cond.csv,0 1 1 1 1 1 1 1 1 0,8,categoryA,f,,,0,0,0,7,2,2,30,0,,,,,,,,,,,,,,,,,,,j,0,1.6282666249899194,,,,,,,,,,,,,,,,,,,,,,,,,,,,,,,,,,,,105,002,2021_Sep_29_1602,joplin1,2021.2.3,60.006030477342456,
_train_cond.csv,0 0 0 1 1 1 1 0 0 0,4,categoryB,j,,,0,0,0,7,2,3,31,10,,,,,,,,,,,,,,,,,,,j,1,1.121674417052418,,,,,,,,,,,,,,,,,,,,,,,,,,,,,,,,,,,,105,002,2021_Sep_29_1602,joplin1,2021.2.3,60.006030477342456,
_train_cond.csv,1 1 0 0 0 0 0 0 1 1,4,categoryB,j,,,0,0,0,7,2,4,32,13,,,,,,,,,,,,,,,,,,,j,1,1.1698464170331135,,,,,,,,,,,,,,,,,,,,,,,,,,,,,,,,,,,,105,002,2021_Sep_29_1602,joplin1,2021.2.3,60.006030477342456,
_train_cond.csv,1 0 0 0 0 0 0 0 0 1,2,categoryB,j,,,0,0,0,7,2,5,33,7,,,,,,,,,,,,,,,,,,,f,0,1.8623784580267966,,,,,,,,,,,,,,,,,,,,,,,,,,,,,,,,,,,,105,002,2021_Sep_29_1602,joplin1,2021.2.3,60.006030477342456,
_train_cond.csv,1 1 1 0 0 0 0 1 1 1,6,categoryA,f,,,0,0,0,7,2,6,34,3,,,,,,,,,,,,,,,,,,,j,0,1.1776405000127852,,,,,,,,,,,,,,,,,,,,,,,,,,,,,,,,,,,,105,002,2021_Sep_29_1602,joplin1,2021.2.3,60.006030477342456,
_train_cond.csv,0 0 1 0 0 0 0 1 0 0,2,categoryB,j,,,0,0,0,7,2,7,35,12,,,,,,,,,,,,,,,,,,,j,1,1.8318478339351714,,,,,,,,,,,,,,,,,,,,,,,,,,,,,,,,,,,,105,002,2021_Sep_29_1602,joplin1,2021.2.3,60.006030477342456,
_train_cond.csv,0 1 0 0 0 0 0 0 1 0,2,categoryB,j,,,0,0,0,7,2,8,36,8,,,,,,,,,,,,,,,,,,,j,1,2.387127708992921,,,,,,,,,,,,,,,,,,,,,,,,,,,,,,,,,,,,105,002,2021_Sep_29_1602,joplin1,2021.2.3,60.006030477342456,
_train_cond.csv,1 1 1 0 1 1 0 1 1 1,8,categoryA,f,,,0,0,0,7,2,9,37,4,,,,,,,,,,,,,,,,,,,f,1,1.249641958042048,,,,,,,,,,,,,,,,,,,,,,,,,,,,,,,,,,,,105,002,2021_Sep_29_1602,joplin1,2021.2.3,60.006030477342456,
_train_cond.csv,0 0 1 0 1 1 0 1 0 0,4,categoryB,j,,,0,0,0,7,2,10,38,9,,,,,,,,,,,,,,,,,,,j,1,0.6606411669636145,,,,,,,,,,,,,,,,,,,,,,,,,,,,,,,,,,,,105,002,2021_Sep_29_1602,joplin1,2021.2.3,60.006030477342456,
_train_cond.csv,0 0 1 1 1 1 1 1 0 0,6,categoryA,f,,,0,0,0,7,2,11,39,6,,,,,,,,,,,,,,,,,,,j,0,2.2717810419853777,,,,,,,,,,,,,,,,,,,,,,,,,,,,,,,,,,,,105,002,2021_Sep_29_1602,joplin1,2021.2.3,60.006030477342456,
_train_cond.csv,1 0 1 1 1 1 1 1 0 1,8,categoryA,f,,,0,0,0,7,2,12,40,1,,,,,,,,,,,,,,,,,,,j,0,0.9697955419542268,,,,,,,,,,,,,,,,,,,,,,,,,,,,,,,,,,,,105,002,2021_Sep_29_1602,joplin1,2021.2.3,60.006030477342456,
_train_cond.csv,1 1 0 1 0 0 1 0 1 1,6,categoryA,f,,,0,0,0,7,2,13,41,2,,,,,,,,,,,,,,,,,,,f,1,1.2023438750766218,,,,,,,,,,,,,,,,,,,,,,,,,,,,,,,,,,,,105,002,2021_Sep_29_1602,joplin1,2021.2.3,60.006030477342456,
_train_cond.csv,,,,,,,0,0,0,7,,,,,,,,,,,,,,,,,,,,,,,,,,space,1.1918065000791103,,,,,,,,,,,,,,,,,,,,,,,,,,,,,,,,,,105,002,2021_Sep_29_1602,joplin1,2021.2.3,60.006030477342456,
_train_cond.csv,0 1 1 1 1 1 1 1 1 0,8,categoryA,f,,,0,1,1,5,0,0,0,0,,,,,,,,,,,,,,,,,,,j,0,1.0763997910544276,,,,,,,,,,,,,,,,,,,,,,,,,,,,,,,,,,,,105,002,2021_Sep_29_1602,joplin1,2021.2.3,60.006030477342456,
_train_cond.csv,0 1 0 0 0 0 0 0 1 0,2,categoryB,j,,,0,1,1,5,0,1,1,8,,,,,,,,,,,,,,,,,,,j,1,1.022355915978551,,,,,,,,,,,,,,,,,,,,,,,,,,,,,,,,,,,,105,002,2021_Sep_29_1602,joplin1,2021.2.3,60.006030477342456,
_train_cond.csv,1 1 0 1 1 1 1 0 1 1,8,categoryA,f,,,0,1,1,5,0,2,2,5,,,,,,,,,,,,,,,,,,,j,0,1.6032915828982368,,,,,,,,,,,,,,,,,,,,,,,,,,,,,,,,,,,,105,002,2021_Sep_29_1602,joplin1,2021.2.3,60.006030477342456,
_train_cond.csv,1 0 0 0 0 0 0 0 0 1,2,categoryB,j,,,0,1,1,5,0,3,3,7,,,,,,,,,,,,,,,,,,,j,1,0.7364264170173556,,,,,,,,,,,,,,,,,,,,,,,,,,,,,,,,,,,,105,002,2021_Sep_29_1602,joplin1,2021.2.3,60.006030477342456,
_train_cond.csv,0 0 1 0 0 0 0 1 0 0,2,categoryB,j,,,0,1,1,5,0,4,4,12,,,,,,,,,,,,,,,,,,,j,1,1.176872874959372,,,,,,,,,,,,,,,,,,,,,,,,,,,,,,,,,,,,105,002,2021_Sep_29_1602,joplin1,2021.2.3,60.006030477342456,
_train_cond.csv,1 0 1 1 1 1 1 1 0 1,8,categoryA,f,,,0,1,1,5,0,5,5,1,,,,,,,,,,,,,,,,,,,f,1,0.9594191659707576,,,,,,,,,,,,,,,,,,,,,,,,,,,,,,,,,,,,105,002,2021_Sep_29_1602,joplin1,2021.2.3,60.006030477342456,
_train_cond.csv,1 1 0 1 0 0 1 0 1 1,6,categoryA,f,,,0,1,1,5,0,6,6,2,,,,,,,,,,,,,,,,,,,j,0,2.3102352080168203,,,,,,,,,,,,,,,,,,,,,,,,,,,,,,,,,,,,105,002,2021_Sep_29_1602,joplin1,2021.2.3,60.006030477342456,
_train_cond.csv,1 1 0 0 0 0 0 0 1 1,4,categoryB,j,,,0,1,1,5,0,7,7,13,,,,,,,,,,,,,,,,,,,j,1,1.2637749999994412,,,,,,,,,,,,,,,,,,,,,,,,,,,,,,,,,,,,105,002,2021_Sep_29_1602,joplin1,2021.2.3,60.006030477342456,
_train_cond.csv,1 1 1 0 0 0 0 1 1 1,6,categoryA,f,,,0,1,1,5,0,8,8,3,,,,,,,,,,,,,,,,,,,j,0,1.6189389580395073,,,,,,,,,,,,,,,,,,,,,,,,,,,,,,,,,,,,105,002,2021_Sep_29_1602,joplin1,2021.2.3,60.006030477342456,
_train_cond.csv,1 1 1 0 1 1 0 1 1 1,8,categoryA,f,,,0,1,1,5,0,9,9,4,,,,,,,,,,,,,,,,,,,j,0,1.735203249962069,,,,,,,,,,,,,,,,,,,,,,,,,,,,,,,,,,,,105,002,2021_Sep_29_1602,joplin1,2021.2.3,60.006030477342456,
_train_cond.csv,0 0 0 1 1 1 1 0 0 0,4,categoryB,j,,,0,1,1,5,0,10,10,10,,,,,,,,,,,,,,,,,,,j,1,1.231553666992113,,,,,,,,,,,,,,,,,,,,,,,,,,,,,,,,,,,,105,002,2021_Sep_29_1602,joplin1,2021.2.3,60.006030477342456,
_train_cond.csv,0 0 1 0 1 1 0 1 0 0,4,categoryB,j,,,0,1,1,5,0,11,11,9,,,,,,,,,,,,,,,,,,,j,1,2.1086229579523206,,,,,,,,,,,,,,,,,,,,,,,,,,,,,,,,,,,,105,002,2021_Sep_29_1602,joplin1,2021.2.3,60.006030477342456,
_train_cond.csv,0 0 0 1 0 0 1 0 0 0,2,categoryB,j,,,0,1,1,5,0,12,12,11,,,,,,,,,,,,,,,,,,,j,1,1.8063396669458598,,,,,,,,,,,,,,,,,,,,,,,,,,,,,,,,,,,,105,002,2021_Sep_29_1602,joplin1,2021.2.3,60.006030477342456,
_train_cond.csv,0 0 1 1 1 1 1 1 0 0,6,categoryA,f,,,0,1,1,5,0,13,13,6,,,,,,,,,,,,,,,,,,,j,0,1.7790097499964759,,,,,,,,,,,,,,,,,,,,,,,,,,,,,,,,,,,,105,002,2021_Sep_29_1602,joplin1,2021.2.3,60.006030477342456,
_train_cond.csv,1 1 0 1 1 1 1 0 1 1,8,categoryA,f,,,0,1,1,5,1,0,14,5,,,,,,,,,,,,,,,,,,,j,0,0.9217233749805018,,,,,,,,,,,,,,,,,,,,,,,,,,,,,,,,,,,,105,002,2021_Sep_29_1602,joplin1,2021.2.3,60.006030477342456,
_train_cond.csv,0 0 1 1 1 1 1 1 0 0,6,categoryA,f,,,0,1,1,5,1,1,15,6,,,,,,,,,,,,,,,,,,,f,1,0.2989720409968868,,,,,,,,,,,,,,,,,,,,,,,,,,,,,,,,,,,,105,002,2021_Sep_29_1602,joplin1,2021.2.3,60.006030477342456,
_train_cond.csv,1 0 0 0 0 0 0 0 0 1,2,categoryB,j,,,0,1,1,5,1,2,16,7,,,,,,,,,,,,,,,,,,,f,0,1.1964363330043852,,,,,,,,,,,,,,,,,,,,,,,,,,,,,,,,,,,,105,002,2021_Sep_29_1602,joplin1,2021.2.3,60.006030477342456,
_train_cond.csv,1 1 0 1 0 0 1 0 1 1,6,categoryA,f,,,0,1,1,5,1,3,17,2,,,,,,,,,,,,,,,,,,,f,1,1.7526015000184998,,,,,,,,,,,,,,,,,,,,,,,,,,,,,,,,,,,,105,002,2021_Sep_29_1602,joplin1,2021.2.3,60.006030477342456,
_train_cond.csv,0 0 1 0 0 0 0 1 0 0,2,categoryB,j,,,0,1,1,5,1,4,18,12,,,,,,,,,,,,,,,,,,,j,1,0.9516484170453623,,,,,,,,,,,,,,,,,,,,,,,,,,,,,,,,,,,,105,002,2021_Sep_29_1602,joplin1,2021.2.3,60.006030477342456,
_train_cond.csv,0 1 0 0 0 0 0 0 1 0,2,categoryB,j,,,0,1,1,5,1,5,19,8,,,,,,,,,,,,,,,,,,,f,0,2.40652570896782,,,,,,,,,,,,,,,,,,,,,,,,,,,,,,,,,,,,105,002,2021_Sep_29_1602,joplin1,2021.2.3,60.006030477342456,
_train_cond.csv,1 1 1 0 1 1 0 1 1 1,8,categoryA,f,,,0,1,1,5,1,6,20,4,,,,,,,,,,,,,,,,,,,f,1,1.2042009580181912,,,,,,,,,,,,,,,,,,,,,,,,,,,,,,,,,,,,105,002,2021_Sep_29_1602,joplin1,2021.2.3,60.006030477342456,
_train_cond.csv,1 0 1 1 1 1 1 1 0 1,8,categoryA,f,,,0,1,1,5,1,7,21,1,,,,,,,,,,,,,,,,,,,f,1,0.6735583749832585,,,,,,,,,,,,,,,,,,,,,,,,,,,,,,,,,,,,105,002,2021_Sep_29_1602,joplin1,2021.2.3,60.006030477342456,
_train_cond.csv,0 0 1 0 1 1 0 1 0 0,4,categoryB,j,,,0,1,1,5,1,8,22,9,,,,,,,,,,,,,,,,,,,j,1,0.8691496669780463,,,,,,,,,,,,,,,,,,,,,,,,,,,,,,,,,,,,105,002,2021_Sep_29_1602,joplin1,2021.2.3,60.006030477342456,
_train_cond.csv,0 0 0 1 1 1 1 0 0 0,4,categoryB,j,,,0,1,1,5,1,9,23,10,,,,,,,,,,,,,,,,,,,j,1,1.5997022920055315,,,,,,,,,,,,,,,,,,,,,,,,,,,,,,,,,,,,105,002,2021_Sep_29_1602,joplin1,2021.2.3,60.006030477342456,
_train_cond.csv,0 1 1 1 1 1 1 1 1 0,8,categoryA,f,,,0,1,1,5,1,10,24,0,,,,,,,,,,,,,,,,,,,f,1,1.6448801670921966,,,,,,,,,,,,,,,,,,,,,,,,,,,,,,,,,,,,105,002,2021_Sep_29_1602,joplin1,2021.2.3,60.006030477342456,
_train_cond.csv,0 0 0 1 0 0 1 0 0 0,2,categoryB,j,,,0,1,1,5,1,11,25,11,,,,,,,,,,,,,,,,,,,j,1,1.2722399169579148,,,,,,,,,,,,,,,,,,,,,,,,,,,,,,,,,,,,105,002,2021_Sep_29_1602,joplin1,2021.2.3,60.006030477342456,
_train_cond.csv,1 1 1 0 0 0 0 1 1 1,6,categoryA,f,,,0,1,1,5,1,12,26,3,,,,,,,,,,,,,,,,,,,f,1,1.3242231669137254,,,,,,,,,,,,,,,,,,,,,,,,,,,,,,,,,,,,105,002,2021_Sep_29_1602,joplin1,2021.2.3,60.006030477342456,
_train_cond.csv,1 1 0 0 0 0 0 0 1 1,4,categoryB,j,,,0,1,1,5,1,13,27,13,,,,,,,,,,,,,,,,,,,j,1,2.3175717500271276,,,,,,,,,,,,,,,,,,,,,,,,,,,,,,,,,,,,105,002,2021_Sep_29_1602,joplin1,2021.2.3,60.006030477342456,
_train_cond.csv,0 0 1 1 1 1 1 1 0 0,6,categoryA,f,,,0,1,1,5,2,0,28,6,,,,,,,,,,,,,,,,,,,f,1,1.5750487089389935,,,,,,,,,,,,,,,,,,,,,,,,,,,,,,,,,,,,105,002,2021_Sep_29_1602,joplin1,2021.2.3,60.006030477342456,
_train_cond.csv,0 0 1 0 0 0 0 1 0 0,2,categoryB,j,,,0,1,1,5,2,1,29,12,,,,,,,,,,,,,,,,,,,f,0,0.8928997080074623,,,,,,,,,,,,,,,,,,,,,,,,,,,,,,,,,,,,105,002,2021_Sep_29_1602,joplin1,2021.2.3,60.006030477342456,
_train_cond.csv,0 1 1 1 1 1 1 1 1 0,8,categoryA,f,,,0,1,1,5,2,2,30,0,,,,,,,,,,,,,,,,,,,f,1,1.23905283305794,,,,,,,,,,,,,,,,,,,,,,,,,,,,,,,,,,,,105,002,2021_Sep_29_1602,joplin1,2021.2.3,60.006030477342456,
_train_cond.csv,1 0 1 1 1 1 1 1 0 1,8,categoryA,f,,,0,1,1,5,2,3,31,1,,,,,,,,,,,,,,,,,,,f,1,1.8590930420905352,,,,,,,,,,,,,,,,,,,,,,,,,,,,,,,,,,,,105,002,2021_Sep_29_1602,joplin1,2021.2.3,60.006030477342456,
_train_cond.csv,1 0 0 0 0 0 0 0 0 1,2,categoryB,j,,,0,1,1,5,2,4,32,7,,,,,,,,,,,,,,,,,,,j,1,2.0870598750188947,,,,,,,,,,,,,,,,,,,,,,,,,,,,,,,,,,,,105,002,2021_Sep_29_1602,joplin1,2021.2.3,60.006030477342456,
_train_cond.csv,1 1 0 0 0 0 0 0 1 1,4,categoryB,j,,,0,1,1,5,2,5,33,13,,,,,,,,,,,,,,,,,,,j,1,0.7048337090527639,,,,,,,,,,,,,,,,,,,,,,,,,,,,,,,,,,,,105,002,2021_Sep_29_1602,joplin1,2021.2.3,60.006030477342456,
_train_cond.csv,0 0 1 0 1 1 0 1 0 0,4,categoryB,j,,,0,1,1,5,2,6,34,9,,,,,,,,,,,,,,,,,,,f,0,0.6267649580258876,,,,,,,,,,,,,,,,,,,,,,,,,,,,,,,,,,,,105,002,2021_Sep_29_1602,joplin1,2021.2.3,60.006030477342456,
_train_cond.csv,1 1 1 0 0 0 0 1 1 1,6,categoryA,f,,,0,1,1,5,2,7,35,3,,,,,,,,,,,,,,,,,,,f,1,1.3677321249851957,,,,,,,,,,,,,,,,,,,,,,,,,,,,,,,,,,,,105,002,2021_Sep_29_1602,joplin1,2021.2.3,60.006030477342456,
_train_cond.csv,0 0 0 1 0 0 1 0 0 0,2,categoryB,j,,,0,1,1,5,2,8,36,11,,,,,,,,,,,,,,,,,,,j,1,0.9668959999689832,,,,,,,,,,,,,,,,,,,,,,,,,,,,,,,,,,,,105,002,2021_Sep_29_1602,joplin1,2021.2.3,60.006030477342456,
_train_cond.csv,1 1 1 0 1 1 0 1 1 1,8,categoryA,f,,,0,1,1,5,2,9,37,4,,,,,,,,,,,,,,,,,,,f,1,1.1423047919524834,,,,,,,,,,,,,,,,,,,,,,,,,,,,,,,,,,,,105,002,2021_Sep_29_1602,joplin1,2021.2.3,60.006030477342456,
_train_cond.csv,0 0 0 1 1 1 1 0 0 0,4,categoryB,j,,,0,1,1,5,2,10,38,10,,,,,,,,,,,,,,,,,,,j,1,0.5897224999498576,,,,,,,,,,,,,,,,,,,,,,,,,,,,,,,,,,,,105,002,2021_Sep_29_1602,joplin1,2021.2.3,60.006030477342456,
_train_cond.csv,1 1 0 1 0 0 1 0 1 1,6,categoryA,f,,,0,1,1,5,2,11,39,2,,,,,,,,,,,,,,,,,,,f,1,1.1723059169016778,,,,,,,,,,,,,,,,,,,,,,,,,,,,,,,,,,,,105,002,2021_Sep_29_1602,joplin1,2021.2.3,60.006030477342456,
_train_cond.csv,1 1 0 1 1 1 1 0 1 1,8,categoryA,f,,,0,1,1,5,2,12,40,5,,,,,,,,,,,,,,,,,,,j,0,0.458704249933362,,,,,,,,,,,,,,,,,,,,,,,,,,,,,,,,,,,,105,002,2021_Sep_29_1602,joplin1,2021.2.3,60.006030477342456,
_train_cond.csv,0 1 0 0 0 0 0 0 1 0,2,categoryB,j,,,0,1,1,5,2,13,41,8,,,,,,,,,,,,,,,,,,,j,1,0.5021747909486294,,,,,,,,,,,,,,,,,,,,,,,,,,,,,,,,,,,,105,002,2021_Sep_29_1602,joplin1,2021.2.3,60.006030477342456,
_train_cond.csv,,,,,,,0,1,1,5,,,,,,,,,,,,,,,,,,,,,,,,,,space,1.3439922080142424,,,,,,,,,,,,,,,,,,,,,,,,,,,,,,,,,,105,002,2021_Sep_29_1602,joplin1,2021.2.3,60.006030477342456,
_train_cond.csv,1 1 0 0 0 0 0 0 1 1,4,categoryB,j,,,0,2,2,6,0,0,0,13,,,,,,,,,,,,,,,,,,,f,0,1.1751385410316288,,,,,,,,,,,,,,,,,,,,,,,,,,,,,,,,,,,,105,002,2021_Sep_29_1602,joplin1,2021.2.3,60.006030477342456,
_train_cond.csv,0 0 1 1 1 1 1 1 0 0,6,categoryA,f,,,0,2,2,6,0,1,1,6,,,,,,,,,,,,,,,,,,,f,1,0.20567637507338077,,,,,,,,,,,,,,,,,,,,,,,,,,,,,,,,,,,,105,002,2021_Sep_29_1602,joplin1,2021.2.3,60.006030477342456,
_train_cond.csv,1 1 0 1 0 0 1 0 1 1,6,categoryA,f,,,0,2,2,6,0,2,2,2,,,,,,,,,,,,,,,,,,,j,0,1.0511221248889342,,,,,,,,,,,,,,,,,,,,,,,,,,,,,,,,,,,,105,002,2021_Sep_29_1602,joplin1,2021.2.3,60.006030477342456,
_train_cond.csv,1 0 1 1 1 1 1 1 0 1,8,categoryA,f,,,0,2,2,6,0,3,3,1,,,,,,,,,,,,,,,,,,,f,1,1.054374958970584,,,,,,,,,,,,,,,,,,,,,,,,,,,,,,,,,,,,105,002,2021_Sep_29_1602,joplin1,2021.2.3,60.006030477342456,
_train_cond.csv,0 1 0 0 0 0 0 0 1 0,2,categoryB,j,,,0,2,2,6,0,4,4,8,,,,,,,,,,,,,,,,,,,j,1,0.9699255839223042,,,,,,,,,,,,,,,,,,,,,,,,,,,,,,,,,,,,105,002,2021_Sep_29_1602,joplin1,2021.2.3,60.006030477342456,
_train_cond.csv,0 0 1 0 0 0 0 1 0 0,2,categoryB,j,,,0,2,2,6,0,5,5,12,,,,,,,,,,,,,,,,,,,f,0,0.8320189999649301,,,,,,,,,,,,,,,,,,,,,,,,,,,,,,,,,,,,105,002,2021_Sep_29_1602,joplin1,2021.2.3,60.006030477342456,
_train_cond.csv,0 1 1 1 1 1 1 1 1 0,8,categoryA,f,,,0,2,2,6,0,6,6,0,,,,,,,,,,,,,,,,,,,f,1,0.5725724579533562,,,,,,,,,,,,,,,,,,,,,,,,,,,,,,,,,,,,105,002,2021_Sep_29_1602,joplin1,2021.2.3,60.006030477342456,
_train_cond.csv,1 0 0 0 0 0 0 0 0 1,2,categoryB,j,,,0,2,2,6,0,7,7,7,,,,,,,,,,,,,,,,,,,j,1,1.531779709039256,,,,,,,,,,,,,,,,,,,,,,,,,,,,,,,,,,,,105,002,2021_Sep_29_1602,joplin1,2021.2.3,60.006030477342456,
_train_cond.csv,1 1 0 1 1 1 1 0 1 1,8,categoryA,f,,,0,2,2,6,0,8,8,5,,,,,,,,,,,,,,,,,,,f,1,0.9641703340457752,,,,,,,,,,,,,,,,,,,,,,,,,,,,,,,,,,,,105,002,2021_Sep_29_1602,joplin1,2021.2.3,60.006030477342456,
_train_cond.csv,1 1 1 0 0 0 0 1 1 1,6,categoryA,f,,,0,2,2,6,0,9,9,3,,,,,,,,,,,,,,,,,,,f,1,0.5875442500691861,,,,,,,,,,,,,,,,,,,,,,,,,,,,,,,,,,,,105,002,2021_Sep_29_1602,joplin1,2021.2.3,60.006030477342456,
_train_cond.csv,1 1 1 0 1 1 0 1 1 1,8,categoryA,f,,,0,2,2,6,0,10,10,4,,,,,,,,,,,,,,,,,,,j,0,1.5225383749930188,,,,,,,,,,,,,,,,,,,,,,,,,,,,,,,,,,,,105,002,2021_Sep_29_1602,joplin1,2021.2.3,60.006030477342456,
_train_cond.csv,0 0 0 1 0 0 1 0 0 0,2,categoryB,j,,,0,2,2,6,0,11,11,11,,,,,,,,,,,,,,,,,,,f,0,0.8835994999390095,,,,,,,,,,,,,,,,,,,,,,,,,,,,,,,,,,,,105,002,2021_Sep_29_1602,joplin1,2021.2.3,60.006030477342456,
_train_cond.csv,0 0 0 1 1 1 1 0 0 0,4,categoryB,j,,,0,2,2,6,0,12,12,10,,,,,,,,,,,,,,,,,,,j,1,0.6706199999898672,,,,,,,,,,,,,,,,,,,,,,,,,,,,,,,,,,,,105,002,2021_Sep_29_1602,joplin1,2021.2.3,60.006030477342456,
_train_cond.csv,0 0 1 0 1 1 0 1 0 0,4,categoryB,j,,,0,2,2,6,0,13,13,9,,,,,,,,,,,,,,,,,,,f,0,1.4584196670912206,,,,,,,,,,,,,,,,,,,,,,,,,,,,,,,,,,,,105,002,2021_Sep_29_1602,joplin1,2021.2.3,60.006030477342456,
_train_cond.csv,1 1 0 0 0 0 0 0 1 1,4,categoryB,j,,,0,2,2,6,1,0,14,13,,,,,,,,,,,,,,,,,,,j,1,0.6371248749783263,,,,,,,,,,,,,,,,,,,,,,,,,,,,,,,,,,,,105,002,2021_Sep_29_1602,joplin1,2021.2.3,60.006030477342456,
_train_cond.csv,0 0 1 0 0 0 0 1 0 0,2,categoryB,j,,,0,2,2,6,1,1,15,12,,,,,,,,,,,,,,,,,,,f,0,0.26653170806821436,,,,,,,,,,,,,,,,,,,,,,,,,,,,,,,,,,,,105,002,2021_Sep_29_1602,joplin1,2021.2.3,60.006030477342456,
_train_cond.csv,1 1 0 1 0 0 1 0 1 1,6,categoryA,f,,,0,2,2,6,1,2,16,2,,,,,,,,,,,,,,,,,,,j,0,1.303791792015545,,,,,,,,,,,,,,,,,,,,,,,,,,,,,,,,,,,,105,002,2021_Sep_29_1602,joplin1,2021.2.3,60.006030477342456,
_train_cond.csv,1 1 1 0 1 1 0 1 1 1,8,categoryA,f,,,0,2,2,6,1,3,17,4,,,,,,,,,,,,,,,,,,,f,1,1.8089660840341821,,,,,,,,,,,,,,,,,,,,,,,,,,,,,,,,,,,,105,002,2021_Sep_29_1602,joplin1,2021.2.3,60.006030477342456,
_train_cond.csv,1 1 0 1 1 1 1 0 1 1,8,categoryA,f,,,0,2,2,6,1,4,18,5,,,,,,,,,,,,,,,,,,,j,0,1.01432700001169,,,,,,,,,,,,,,,,,,,,,,,,,,,,,,,,,,,,105,002,2021_Sep_29_1602,joplin1,2021.2.3,60.006030477342456,
_train_cond.csv,0 0 1 1 1 1 1 1 0 0,6,categoryA,f,,,0,2,2,6,1,5,19,6,,,,,,,,,,,,,,,,,,,j,0,1.6044361669337377,,,,,,,,,,,,,,,,,,,,,,,,,,,,,,,,,,,,105,002,2021_Sep_29_1602,joplin1,2021.2.3,60.006030477342456,
_train_cond.csv,1 0 1 1 1 1 1 1 0 1,8,categoryA,f,,,0,2,2,6,1,6,20,1,,,,,,,,,,,,,,,,,,,f,1,1.1288256660336629,,,,,,,,,,,,,,,,,,,,,,,,,,,,,,,,,,,,105,002,2021_Sep_29_1602,joplin1,2021.2.3,60.006030477342456,
_train_cond.csv,1 0 0 0 0 0 0 0 0 1,2,categoryB,j,,,0,2,2,6,1,7,21,7,,,,,,,,,,,,,,,,,,,f,0,1.6017716670176014,,,,,,,,,,,,,,,,,,,,,,,,,,,,,,,,,,,,105,002,2021_Sep_29_1602,joplin1,2021.2.3,60.006030477342456,
_train_cond.csv,0 0 0 1 0 0 1 0 0 0,2,categoryB,j,,,0,2,2,6,1,8,22,11,,,,,,,,,,,,,,,,,,,f,0,2.2632145000388846,,,,,,,,,,,,,,,,,,,,,,,,,,,,,,,,,,,,105,002,2021_Sep_29_1602,joplin1,2021.2.3,60.006030477342456,
_train_cond.csv,0 1 1 1 1 1 1 1 1 0,8,categoryA,f,,,0,2,2,6,1,9,23,0,,,,,,,,,,,,,,,,,,,j,0,1.8832207079976797,,,,,,,,,,,,,,,,,,,,,,,,,,,,,,,,,,,,105,002,2021_Sep_29_1602,joplin1,2021.2.3,60.006030477342456,
_train_cond.csv,0 0 1 0 1 1 0 1 0 0,4,categoryB,j,,,0,2,2,6,1,10,24,9,,,,,,,,,,,,,,,,,,,j,1,0.8138594999909401,,,,,,,,,,,,,,,,,,,,,,,,,,,,,,,,,,,,105,002,2021_Sep_29_1602,joplin1,2021.2.3,60.006030477342456,
_train_cond.csv,0 1 0 0 0 0 0 0 1 0,2,categoryB,j,,,0,2,2,6,1,11,25,8,,,,,,,,,,,,,,,,,,,j,1,0.4804980830522254,,,,,,,,,,,,,,,,,,,,,,,,,,,,,,,,,,,,105,002,2021_Sep_29_1602,joplin1,2021.2.3,60.006030477342456,
_train_cond.csv,1 1 1 0 0 0 0 1 1 1,6,categoryA,f,,,0,2,2,6,1,12,26,3,,,,,,,,,,,,,,,,,,,j,0,1.259567708009854,,,,,,,,,,,,,,,,,,,,,,,,,,,,,,,,,,,,105,002,2021_Sep_29_1602,joplin1,2021.2.3,60.006030477342456,
_train_cond.csv,0 0 0 1 1 1 1 0 0 0,4,categoryB,j,,,0,2,2,6,1,13,27,10,,,,,,,,,,,,,,,,,,,f,0,1.4949232080252841,,,,,,,,,,,,,,,,,,,,,,,,,,,,,,,,,,,,105,002,2021_Sep_29_1602,joplin1,2021.2.3,60.006030477342456,
_train_cond.csv,0 1 0 0 0 0 0 0 1 0,2,categoryB,j,,,0,2,2,6,2,0,28,8,,,,,,,,,,,,,,,,,,,j,1,0.9692536249058321,,,,,,,,,,,,,,,,,,,,,,,,,,,,,,,,,,,,105,002,2021_Sep_29_1602,joplin1,2021.2.3,60.006030477342456,
_train_cond.csv,1 0 1 1 1 1 1 1 0 1,8,categoryA,f,,,0,2,2,6,2,1,29,1,,,,,,,,,,,,,,,,,,,f,1,1.214093792019412,,,,,,,,,,,,,,,,,,,,,,,,,,,,,,,,,,,,105,002,2021_Sep_29_1602,joplin1,2021.2.3,60.006030477342456,
_train_cond.csv,0 0 1 0 0 0 0 1 0 0,2,categoryB,j,,,0,2,2,6,2,2,30,12,,,,,,,,,,,,,,,,,,,j,1,1.0042559170396999,,,,,,,,,,,,,,,,,,,,,,,,,,,,,,,,,,,,105,002,2021_Sep_29_1602,joplin1,2021.2.3,60.006030477342456,
_train_cond.csv,0 0 1 0 1 1 0 1 0 0,4,categoryB,j,,,0,2,2,6,2,3,31,9,,,,,,,,,,,,,,,,,,,j,1,1.0570536670275033,,,,,,,,,,,,,,,,,,,,,,,,,,,,,,,,,,,,105,002,2021_Sep_29_1602,joplin1,2021.2.3,60.006030477342456,
_train_cond.csv,1 1 1 0 0 0 0 1 1 1,6,categoryA,f,,,0,2,2,6,2,4,32,3,,,,,,,,,,,,,,,,,,,f,1,0.8770938329398632,,,,,,,,,,,,,,,,,,,,,,,,,,,,,,,,,,,,105,002,2021_Sep_29_1602,joplin1,2021.2.3,60.006030477342456,
_train_cond.csv,1 1 0 1 0 0 1 0 1 1,6,categoryA,f,,,0,2,2,6,2,5,33,2,,,,,,,,,,,,,,,,,,,j,0,0.7044209580635652,,,,,,,,,,,,,,,,,,,,,,,,,,,,,,,,,,,,105,002,2021_Sep_29_1602,joplin1,2021.2.3,60.006030477342456,
_train_cond.csv,0 0 0 1 0 0 1 0 0 0,2,categoryB,j,,,0,2,2,6,2,6,34,11,,,,,,,,,,,,,,,,,,,j,1,0.7046764579135925,,,,,,,,,,,,,,,,,,,,,,,,,,,,,,,,,,,,105,002,2021_Sep_29_1602,joplin1,2021.2.3,60.006030477342456,
_train_cond.csv,0 0 1 1 1 1 1 1 0 0,6,categoryA,f,,,0,2,2,6,2,7,35,6,,,,,,,,,,,,,,,,,,,j,0,0.7686734999297187,,,,,,,,,,,,,,,,,,,,,,,,,,,,,,,,,,,,105,002,2021_Sep_29_1602,joplin1,2021.2.3,60.006030477342456,
_train_cond.csv,1 1 0 0 0 0 0 0 1 1,4,categoryB,j,,,0,2,2,6,2,8,36,13,,,,,,,,,,,,,,,,,,,f,0,1.7258433329407126,,,,,,,,,,,,,,,,,,,,,,,,,,,,,,,,,,,,105,002,2021_Sep_29_1602,joplin1,2021.2.3,60.006030477342456,
_train_cond.csv,0 0 0 1 1 1 1 0 0 0,4,categoryB,j,,,0,2,2,6,2,9,37,10,,,,,,,,,,,,,,,,,,,j,1,0.7497537500457838,,,,,,,,,,,,,,,,,,,,,,,,,,,,,,,,,,,,105,002,2021_Sep_29_1602,joplin1,2021.2.3,60.006030477342456,
_train_cond.csv,0 1 1 1 1 1 1 1 1 0,8,categoryA,f,,,0,2,2,6,2,10,38,0,,,,,,,,,,,,,,,,,,,j,0,1.6864520829403773,,,,,,,,,,,,,,,,,,,,,,,,,,,,,,,,,,,,105,002,2021_Sep_29_1602,joplin1,2021.2.3,60.006030477342456,
_train_cond.csv,1 1 0 1 1 1 1 0 1 1,8,categoryA,f,,,0,2,2,6,2,11,39,5,,,,,,,,,,,,,,,,,,,f,1,1.3978396670427173,,,,,,,,,,,,,,,,,,,,,,,,,,,,,,,,,,,,105,002,2021_Sep_29_1602,joplin1,2021.2.3,60.006030477342456,
_train_cond.csv,1 0 0 0 0 0 0 0 0 1,2,categoryB,j,,,0,2,2,6,2,12,40,7,,,,,,,,,,,,,,,,,,,j,1,0.45149420807138085,,,,,,,,,,,,,,,,,,,,,,,,,,,,,,,,,,,,105,002,2021_Sep_29_1602,joplin1,2021.2.3,60.006030477342456,
_train_cond.csv,1 1 1 0 1 1 0 1 1 1,8,categoryA,f,,,0,2,2,6,2,13,41,4,,,,,,,,,,,,,,,,,,,f,1,0.8063614170532674,,,,,,,,,,,,,,,,,,,,,,,,,,,,,,,,,,,,105,002,2021_Sep_29_1602,joplin1,2021.2.3,60.006030477342456,
_train_cond.csv,,,,,,,0,2,2,6,,,,,,,,,,,,,,,,,,,,,,,,,,space,6.003538916935213,,,,,,,,,,,,,,,,,,,,,,,,,,,,,,,,,,105,002,2021_Sep_29_1602,joplin1,2021.2.3,60.006030477342456,
_train_cond.csv,1 1 0 1 1 1 1 0 1 1,8,categoryA,f,,,0,3,3,4,0,0,0,5,,,,,,,,,,,,,,,,,,,j,0,1.1278388330247253,,,,,,,,,,,,,,,,,,,,,,,,,,,,,,,,,,,,105,002,2021_Sep_29_1602,joplin1,2021.2.3,60.006030477342456,
_train_cond.csv,0 0 0 1 0 0 1 0 0 0,2,categoryB,j,,,0,3,3,4,0,1,1,11,,,,,,,,,,,,,,,,,,,j,1,0.9284678749972954,,,,,,,,,,,,,,,,,,,,,,,,,,,,,,,,,,,,105,002,2021_Sep_29_1602,joplin1,2021.2.3,60.006030477342456,
_train_cond.csv,1 1 1 0 1 1 0 1 1 1,8,categoryA,f,,,0,3,3,4,0,2,2,4,,,,,,,,,,,,,,,,,,,f,1,1.432920999941416,,,,,,,,,,,,,,,,,,,,,,,,,,,,,,,,,,,,105,002,2021_Sep_29_1602,joplin1,2021.2.3,60.006030477342456,
_train_cond.csv,0 1 1 1 1 1 1 1 1 0,8,categoryA,f,,,0,3,3,4,0,3,3,0,,,,,,,,,,,,,,,,,,,f,1,1.3256129160290584,,,,,,,,,,,,,,,,,,,,,,,,,,,,,,,,,,,,105,002,2021_Sep_29_1602,joplin1,2021.2.3,60.006030477342456,
_train_cond.csv,1 0 0 0 0 0 0 0 0 1,2,categoryB,j,,,0,3,3,4,0,4,4,7,,,,,,,,,,,,,,,,,,,j,1,0.9025917910039425,,,,,,,,,,,,,,,,,,,,,,,,,,,,,,,,,,,,105,002,2021_Sep_29_1602,joplin1,2021.2.3,60.006030477342456,
_train_cond.csv,0 0 1 1 1 1 1 1 0 0,6,categoryA,f,,,0,3,3,4,0,5,5,6,,,,,,,,,,,,,,,,,,,j,0,0.7838120830710977,,,,,,,,,,,,,,,,,,,,,,,,,,,,,,,,,,,,105,002,2021_Sep_29_1602,joplin1,2021.2.3,60.006030477342456,
_train_cond.csv,0 1 0 0 0 0 0 0 1 0,2,categoryB,j,,,0,3,3,4,0,6,6,8,,,,,,,,,,,,,,,,,,,j,1,0.5256334169534966,,,,,,,,,,,,,,,,,,,,,,,,,,,,,,,,,,,,105,002,2021_Sep_29_1602,joplin1,2021.2.3,60.006030477342456,
_train_cond.csv,0 0 0 1 1 1 1 0 0 0,4,categoryB,j,,,0,3,3,4,0,7,7,10,,,,,,,,,,,,,,,,,,,j,1,2.0215436670696363,,,,,,,,,,,,,,,,,,,,,,,,,,,,,,,,,,,,105,002,2021_Sep_29_1602,joplin1,2021.2.3,60.006030477342456,
_train_cond.csv,0 0 1 0 0 0 0 1 0 0,2,categoryB,j,,,0,3,3,4,0,8,8,12,,,,,,,,,,,,,,,,,,,j,1,0.8506227500038221,,,,,,,,,,,,,,,,,,,,,,,,,,,,,,,,,,,,105,002,2021_Sep_29_1602,joplin1,2021.2.3,60.006030477342456,
_train_cond.csv,1 1 1 0 0 0 0 1 1 1,6,categoryA,f,,,0,3,3,4,0,9,9,3,,,,,,,,,,,,,,,,,,,f,1,0.670187916024588,,,,,,,,,,,,,,,,,,,,,,,,,,,,,,,,,,,,105,002,2021_Sep_29_1602,joplin1,2021.2.3,60.006030477342456,
_train_cond.csv,0 0 1 0 1 1 0 1 0 0,4,categoryB,j,,,0,3,3,4,0,10,10,9,,,,,,,,,,,,,,,,,,,j,1,1.7690952910343185,,,,,,,,,,,,,,,,,,,,,,,,,,,,,,,,,,,,105,002,2021_Sep_29_1602,joplin1,2021.2.3,60.006030477342456,
_train_cond.csv,1 0 1 1 1 1 1 1 0 1,8,categoryA,f,,,0,3,3,4,0,11,11,1,,,,,,,,,,,,,,,,,,,f,1,0.6151497919345275,,,,,,,,,,,,,,,,,,,,,,,,,,,,,,,,,,,,105,002,2021_Sep_29_1602,joplin1,2021.2.3,60.006030477342456,
_train_cond.csv,1 1 0 0 0 0 0 0 1 1,4,categoryB,j,,,0,3,3,4,0,12,12,13,,,,,,,,,,,,,,,,,,,f,0,1.5804263749159873,,,,,,,,,,,,,,,,,,,,,,,,,,,,,,,,,,,,105,002,2021_Sep_29_1602,joplin1,2021.2.3,60.006030477342456,
_train_cond.csv,1 1 0 1 0 0 1 0 1 1,6,categoryA,f,,,0,3,3,4,0,13,13,2,,,,,,,,,,,,,,,,,,,f,1,1.4344484579050913,,,,,,,,,,,,,,,,,,,,,,,,,,,,,,,,,,,,105,002,2021_Sep_29_1602,joplin1,2021.2.3,60.006030477342456,
_train_cond.csv,0 1 1 1 1 1 1 1 1 0,8,categoryA,f,,,0,3,3,4,1,0,14,0,,,,,,,,,,,,,,,,,,,f,1,0.8785619169939309,,,,,,,,,,,,,,,,,,,,,,,,,,,,,,,,,,,,105,002,2021_Sep_29_1602,joplin1,2021.2.3,60.006030477342456,
_train_cond.csv,0 0 1 0 1 1 0 1 0 0,4,categoryB,j,,,0,3,3,4,1,1,15,9,,,,,,,,,,,,,,,,,,,j,1,2.0899267500499263,,,,,,,,,,,,,,,,,,,,,,,,,,,,,,,,,,,,105,002,2021_Sep_29_1602,joplin1,2021.2.3,60.006030477342456,
_train_cond.csv,1 1 1 0 0 0 0 1 1 1,6,categoryA,f,,,0,3,3,4,1,2,16,3,,,,,,,,,,,,,,,,,,,f,1,1.5245929170632735,,,,,,,,,,,,,,,,,,,,,,,,,,,,,,,,,,,,105,002,2021_Sep_29_1602,joplin1,2021.2.3,60.006030477342456,
_train_cond.csv,1 1 1 0 1 1 0 1 1 1,8,categoryA,f,,,0,3,3,4,1,3,17,4,,,,,,,,,,,,,,,,,,,f,1,0.5962954580318183,,,,,,,,,,,,,,,,,,,,,,,,,,,,,,,,,,,,105,002,2021_Sep_29_1602,joplin1,2021.2.3,60.006030477342456,
_train_cond.csv,0 0 1 1 1 1 1 1 0 0,6,categoryA,f,,,0,3,3,4,1,4,18,6,,,,,,,,,,,,,,,,,,,j,0,0.7303319580387324,,,,,,,,,,,,,,,,,,,,,,,,,,,,,,,,,,,,105,002,2021_Sep_29_1602,joplin1,2021.2.3,60.006030477342456,
_train_cond.csv,0 0 0 1 1 1 1 0 0 0,4,categoryB,j,,,0,3,3,4,1,5,19,10,,,,,,,,,,,,,,,,,,,j,1,1.3213209579698741,,,,,,,,,,,,,,,,,,,,,,,,,,,,,,,,,,,,105,002,2021_Sep_29_1602,joplin1,2021.2.3,60.006030477342456,
_train_cond.csv,0 0 0 1 0 0 1 0 0 0,2,categoryB,j,,,0,3,3,4,1,6,20,11,,,,,,,,,,,,,,,,,,,f,0,1.4908808330073953,,,,,,,,,,,,,,,,,,,,,,,,,,,,,,,,,,,,105,002,2021_Sep_29_1602,joplin1,2021.2.3,60.006030477342456,
_train_cond.csv,1 1 0 1 0 0 1 0 1 1,6,categoryA,f,,,0,3,3,4,1,7,21,2,,,,,,,,,,,,,,,,,,,j,0,1.1968730830121785,,,,,,,,,,,,,,,,,,,,,,,,,,,,,,,,,,,,105,002,2021_Sep_29_1602,joplin1,2021.2.3,60.006030477342456,
_train_cond.csv,0 0 1 0 0 0 0 1 0 0,2,categoryB,j,,,0,3,3,4,1,8,22,12,,,,,,,,,,,,,,,,,,,j,1,1.2098283329978585,,,,,,,,,,,,,,,,,,,,,,,,,,,,,,,,,,,,105,002,2021_Sep_29_1602,joplin1,2021.2.3,60.006030477342456,
_train_cond.csv,1 1 0 0 0 0 0 0 1 1,4,categoryB,j,,,0,3,3,4,1,9,23,13,,,,,,,,,,,,,,,,,,,j,1,0.9350012079812586,,,,,,,,,,,,,,,,,,,,,,,,,,,,,,,,,,,,105,002,2021_Sep_29_1602,joplin1,2021.2.3,60.006030477342456,
_train_cond.csv,1 0 0 0 0 0 0 0 0 1,2,categoryB,j,,,0,3,3,4,1,10,24,7,,,,,,,,,,,,,,,,,,,j,1,1.301738000009209,,,,,,,,,,,,,,,,,,,,,,,,,,,,,,,,,,,,105,002,2021_Sep_29_1602,joplin1,2021.2.3,60.006030477342456,
_train_cond.csv,0 1 0 0 0 0 0 0 1 0,2,categoryB,j,,,0,3,3,4,1,11,25,8,,,,,,,,,,,,,,,,,,,j,1,1.2480508330045268,,,,,,,,,,,,,,,,,,,,,,,,,,,,,,,,,,,,105,002,2021_Sep_29_1602,joplin1,2021.2.3,60.006030477342456,
_train_cond.csv,1 0 1 1 1 1 1 1 0 1,8,categoryA,f,,,0,3,3,4,1,12,26,1,,,,,,,,,,,,,,,,,,,f,1,2.163767042104155,,,,,,,,,,,,,,,,,,,,,,,,,,,,,,,,,,,,105,002,2021_Sep_29_1602,joplin1,2021.2.3,60.006030477342456,
_train_cond.csv,1 1 0 1 1 1 1 0 1 1,8,categoryA,f,,,0,3,3,4,1,13,27,5,,,,,,,,,,,,,,,,,,,j,0,1.3150701250415295,,,,,,,,,,,,,,,,,,,,,,,,,,,,,,,,,,,,105,002,2021_Sep_29_1602,joplin1,2021.2.3,60.006030477342456,
_train_cond.csv,1 1 1 0 0 0 0 1 1 1,6,categoryA,f,,,0,3,3,4,2,0,28,3,,,,,,,,,,,,,,,,,,,f,1,0.6589527920586988,,,,,,,,,,,,,,,,,,,,,,,,,,,,,,,,,,,,105,002,2021_Sep_29_1602,joplin1,2021.2.3,60.006030477342456,
_train_cond.csv,1 1 1 0 1 1 0 1 1 1,8,categoryA,f,,,0,3,3,4,2,1,29,4,,,,,,,,,,,,,,,,,,,f,1,1.2133994590258226,,,,,,,,,,,,,,,,,,,,,,,,,,,,,,,,,,,,105,002,2021_Sep_29_1602,joplin1,2021.2.3,60.006030477342456,
_train_cond.csv,1 1 0 1 1 1 1 0 1 1,8,categoryA,f,,,0,3,3,4,2,2,30,5,,,,,,,,,,,,,,,,,,,j,0,0.7075517500052229,,,,,,,,,,,,,,,,,,,,,,,,,,,,,,,,,,,,105,002,2021_Sep_29_1602,joplin1,2021.2.3,60.006030477342456,
_train_cond.csv,0 1 1 1 1 1 1 1 1 0,8,categoryA,f,,,0,3,3,4,2,3,31,0,,,,,,,,,,,,,,,,,,,f,1,1.2684679159428924,,,,,,,,,,,,,,,,,,,,,,,,,,,,,,,,,,,,105,002,2021_Sep_29_1602,joplin1,2021.2.3,60.006030477342456,
_train_cond.csv,0 0 1 0 1 1 0 1 0 0,4,categoryB,j,,,0,3,3,4,2,4,32,9,,,,,,,,,,,,,,,,,,,j,1,0.9027593330247328,,,,,,,,,,,,,,,,,,,,,,,,,,,,,,,,,,,,105,002,2021_Sep_29_1602,joplin1,2021.2.3,60.006030477342456,
_train_cond.csv,1 1 0 1 0 0 1 0 1 1,6,categoryA,f,,,0,3,3,4,2,5,33,2,,,,,,,,,,,,,,,,,,,j,0,1.1116814580745995,,,,,,,,,,,,,,,,,,,,,,,,,,,,,,,,,,,,105,002,2021_Sep_29_1602,joplin1,2021.2.3,60.006030477342456,
_train_cond.csv,1 0 1 1 1 1 1 1 0 1,8,categoryA,f,,,0,3,3,4,2,6,34,1,,,,,,,,,,,,,,,,,,,f,1,1.72109458304476,,,,,,,,,,,,,,,,,,,,,,,,,,,,,,,,,,,,105,002,2021_Sep_29_1602,joplin1,2021.2.3,60.006030477342456,
_train_cond.csv,0 1 0 0 0 0 0 0 1 0,2,categoryB,j,,,0,3,3,4,2,7,35,8,,,,,,,,,,,,,,,,,,,j,1,0.9206457920372486,,,,,,,,,,,,,,,,,,,,,,,,,,,,,,,,,,,,105,002,2021_Sep_29_1602,joplin1,2021.2.3,60.006030477342456,
_train_cond.csv,1 1 0 0 0 0 0 0 1 1,4,categoryB,j,,,0,3,3,4,2,8,36,13,,,,,,,,,,,,,,,,,,,j,1,0.7451285829301924,,,,,,,,,,,,,,,,,,,,,,,,,,,,,,,,,,,,105,002,2021_Sep_29_1602,joplin1,2021.2.3,60.006030477342456,
_train_cond.csv,0 0 1 1 1 1 1 1 0 0,6,categoryA,f,,,0,3,3,4,2,9,37,6,,,,,,,,,,,,,,,,,,,j,0,1.6495753329945728,,,,,,,,,,,,,,,,,,,,,,,,,,,,,,,,,,,,105,002,2021_Sep_29_1602,joplin1,2021.2.3,60.006030477342456,
_train_cond.csv,0 0 0 1 0 0 1 0 0 0,2,categoryB,j,,,0,3,3,4,2,10,38,11,,,,,,,,,,,,,,,,,,,j,1,1.2293970830505714,,,,,,,,,,,,,,,,,,,,,,,,,,,,,,,,,,,,105,002,2021_Sep_29_1602,joplin1,2021.2.3,60.006030477342456,
_train_cond.csv,0 0 0 1 1 1 1 0 0 0,4,categoryB,j,,,0,3,3,4,2,11,39,10,,,,,,,,,,,,,,,,,,,j,1,2.2817332500126213,,,,,,,,,,,,,,,,,,,,,,,,,,,,,,,,,,,,105,002,2021_Sep_29_1602,joplin1,2021.2.3,60.006030477342456,
_train_cond.csv,0 0 1 0 0 0 0 1 0 0,2,categoryB,j,,,0,3,3,4,2,12,40,12,,,,,,,,,,,,,,,,,,,j,1,0.9648799159331247,,,,,,,,,,,,,,,,,,,,,,,,,,,,,,,,,,,,105,002,2021_Sep_29_1602,joplin1,2021.2.3,60.006030477342456,
_train_cond.csv,1 0 0 0 0 0 0 0 0 1,2,categoryB,j,,,0,3,3,4,2,13,41,7,,,,,,,,,,,,,,,,,,,f,0,1.6202195000369102,,,,,,,,,,,,,,,,,,,,,,,,,,,,,,,,,,,,105,002,2021_Sep_29_1602,joplin1,2021.2.3,60.006030477342456,
_train_cond.csv,,,,,,,0,3,3,4,,,,,,,,,,,,,,,,,,,,,,,,,,space,1.2488185840193182,,,,,,,,,,,,,,,,,,,,,,,,,,,,,,,,,,105,002,2021_Sep_29_1602,joplin1,2021.2.3,60.006030477342456,
_train_cond.csv,0 0 0 1 1 1 1 0 0 0,4,categoryB,j,,,0,4,4,2,0,0,0,10,,,,,,,,,,,,,,,,,,,j,1,0.5723071249667555,,,,,,,,,,,,,,,,,,,,,,,,,,,,,,,,,,,,105,002,2021_Sep_29_1602,joplin1,2021.2.3,60.006030477342456,
_train_cond.csv,0 0 1 0 1 1 0 1 0 0,4,categoryB,j,,,0,4,4,2,0,1,1,9,,,,,,,,,,,,,,,,,,,j,1,0.8760349589865655,,,,,,,,,,,,,,,,,,,,,,,,,,,,,,,,,,,,105,002,2021_Sep_29_1602,joplin1,2021.2.3,60.006030477342456,
_train_cond.csv,1 1 0 0 0 0 0 0 1 1,4,categoryB,j,,,0,4,4,2,0,2,2,13,,,,,,,,,,,,,,,,,,,j,1,0.9110924580600113,,,,,,,,,,,,,,,,,,,,,,,,,,,,,,,,,,,,105,002,2021_Sep_29_1602,joplin1,2021.2.3,60.006030477342456,
_train_cond.csv,1 1 0 1 0 0 1 0 1 1,6,categoryA,f,,,0,4,4,2,0,3,3,2,,,,,,,,,,,,,,,,,,,f,1,0.20907937490846962,,,,,,,,,,,,,,,,,,,,,,,,,,,,,,,,,,,,105,002,2021_Sep_29_1602,joplin1,2021.2.3,60.006030477342456,
_train_cond.csv,0 0 1 0 0 0 0 1 0 0,2,categoryB,j,,,0,4,4,2,0,4,4,12,,,,,,,,,,,,,,,,,,,f,0,0.7737714160466567,,,,,,,,,,,,,,,,,,,,,,,,,,,,,,,,,,,,105,002,2021_Sep_29_1602,joplin1,2021.2.3,60.006030477342456,
_train_cond.csv,0 1 1 1 1 1 1 1 1 0,8,categoryA,f,,,0,4,4,2,0,5,5,0,,,,,,,,,,,,,,,,,,,f,1,0.7869968750746921,,,,,,,,,,,,,,,,,,,,,,,,,,,,,,,,,,,,105,002,2021_Sep_29_1602,joplin1,2021.2.3,60.006030477342456,
_train_cond.csv,1 0 1 1 1 1 1 1 0 1,8,categoryA,f,,,0,4,4,2,0,6,6,1,,,,,,,,,,,,,,,,,,,f,1,0.311065666959621,,,,,,,,,,,,,,,,,,,,,,,,,,,,,,,,,,,,105,002,2021_Sep_29_1602,joplin1,2021.2.3,60.006030477342456,
_train_cond.csv,1 1 1 0 1 1 0 1 1 1,8,categoryA,f,,,0,4,4,2,0,7,7,4,,,,,,,,,,,,,,,,,,,f,1,1.1521692080423236,,,,,,,,,,,,,,,,,,,,,,,,,,,,,,,,,,,,105,002,2021_Sep_29_1602,joplin1,2021.2.3,60.006030477342456,
_train_cond.csv,1 0 0 0 0 0 0 0 0 1,2,categoryB,j,,,0,4,4,2,0,8,8,7,,,,,,,,,,,,,,,,,,,j,1,0.6958182090893388,,,,,,,,,,,,,,,,,,,,,,,,,,,,,,,,,,,,105,002,2021_Sep_29_1602,joplin1,2021.2.3,60.006030477342456,
_train_cond.csv,0 0 1 1 1 1 1 1 0 0,6,categoryA,f,,,0,4,4,2,0,9,9,6,,,,,,,,,,,,,,,,,,,f,1,1.604659124976024,,,,,,,,,,,,,,,,,,,,,,,,,,,,,,,,,,,,105,002,2021_Sep_29_1602,joplin1,2021.2.3,60.006030477342456,
_train_cond.csv,0 0 0 1 0 0 1 0 0 0,2,categoryB,j,,,0,4,4,2,0,10,10,11,,,,,,,,,,,,,,,,,,,j,1,1.0575697500025854,,,,,,,,,,,,,,,,,,,,,,,,,,,,,,,,,,,,105,002,2021_Sep_29_1602,joplin1,2021.2.3,60.006030477342456,
_train_cond.csv,1 1 0 1 1 1 1 0 1 1,8,categoryA,f,,,0,4,4,2,0,11,11,5,,,,,,,,,,,,,,,,,,,f,1,1.1499237089883536,,,,,,,,,,,,,,,,,,,,,,,,,,,,,,,,,,,,105,002,2021_Sep_29_1602,joplin1,2021.2.3,60.006030477342456,
_train_cond.csv,1 1 1 0 0 0 0 1 1 1,6,categoryA,f,,,0,4,4,2,0,12,12,3,,,,,,,,,,,,,,,,,,,j,0,0.5815373340155929,,,,,,,,,,,,,,,,,,,,,,,,,,,,,,,,,,,,105,002,2021_Sep_29_1602,joplin1,2021.2.3,60.006030477342456,
_train_cond.csv,0 1 0 0 0 0 0 0 1 0,2,categoryB,j,,,0,4,4,2,0,13,13,8,,,,,,,,,,,,,,,,,,,j,1,0.8114897910272703,,,,,,,,,,,,,,,,,,,,,,,,,,,,,,,,,,,,105,002,2021_Sep_29_1602,joplin1,2021.2.3,60.006030477342456,
_train_cond.csv,1 1 1 0 1 1 0 1 1 1,8,categoryA,f,,,0,4,4,2,1,0,14,4,,,,,,,,,,,,,,,,,,,f,1,0.2804932500002906,,,,,,,,,,,,,,,,,,,,,,,,,,,,,,,,,,,,105,002,2021_Sep_29_1602,joplin1,2021.2.3,60.006030477342456,
_train_cond.csv,1 1 0 1 1 1 1 0 1 1,8,categoryA,f,,,0,4,4,2,1,1,15,5,,,,,,,,,,,,,,,,,,,j,0,0.7228147919522598,,,,,,,,,,,,,,,,,,,,,,,,,,,,,,,,,,,,105,002,2021_Sep_29_1602,joplin1,2021.2.3,60.006030477342456,
_train_cond.csv,1 1 1 0 0 0 0 1 1 1,6,categoryA,f,,,0,4,4,2,1,2,16,3,,,,,,,,,,,,,,,,,,,j,0,0.6994685840327293,,,,,,,,,,,,,,,,,,,,,,,,,,,,,,,,,,,,105,002,2021_Sep_29_1602,joplin1,2021.2.3,60.006030477342456,
_train_cond.csv,1 0 0 0 0 0 0 0 0 1,2,categoryB,j,,,0,4,4,2,1,3,17,7,,,,,,,,,,,,,,,,,,,j,1,0.4538351249648258,,,,,,,,,,,,,,,,,,,,,,,,,,,,,,,,,,,,105,002,2021_Sep_29_1602,joplin1,2021.2.3,60.006030477342456,
_train_cond.csv,1 1 0 0 0 0 0 0 1 1,4,categoryB,j,,,0,4,4,2,1,4,18,13,,,,,,,,,,,,,,,,,,,j,1,0.8158552499953657,,,,,,,,,,,,,,,,,,,,,,,,,,,,,,,,,,,,105,002,2021_Sep_29_1602,joplin1,2021.2.3,60.006030477342456,
_train_cond.csv,0 0 1 0 0 0 0 1 0 0,2,categoryB,j,,,0,4,4,2,1,5,19,12,,,,,,,,,,,,,,,,,,,j,1,1.004897040897049,,,,,,,,,,,,,,,,,,,,,,,,,,,,,,,,,,,,105,002,2021_Sep_29_1602,joplin1,2021.2.3,60.006030477342456,
_train_cond.csv,1 0 1 1 1 1 1 1 0 1,8,categoryA,f,,,0,4,4,2,1,6,20,1,,,,,,,,,,,,,,,,,,,j,0,1.5623859158949926,,,,,,,,,,,,,,,,,,,,,,,,,,,,,,,,,,,,105,002,2021_Sep_29_1602,joplin1,2021.2.3,60.006030477342456,
_train_cond.csv,0 0 0 1 0 0 1 0 0 0,2,categoryB,j,,,0,4,4,2,1,7,21,11,,,,,,,,,,,,,,,,,,,f,0,1.1847427500179037,,,,,,,,,,,,,,,,,,,,,,,,,,,,,,,,,,,,105,002,2021_Sep_29_1602,joplin1,2021.2.3,60.006030477342456,
_train_cond.csv,0 1 1 1 1 1 1 1 1 0,8,categoryA,f,,,0,4,4,2,1,8,22,0,,,,,,,,,,,,,,,,,,,j,0,0.7598027499625459,,,,,,,,,,,,,,,,,,,,,,,,,,,,,,,,,,,,105,002,2021_Sep_29_1602,joplin1,2021.2.3,60.006030477342456,
_train_cond.csv,0 0 0 1 1 1 1 0 0 0,4,categoryB,j,,,0,4,4,2,1,9,23,10,,,,,,,,,,,,,,,,,,,j,1,1.318892000010237,,,,,,,,,,,,,,,,,,,,,,,,,,,,,,,,,,,,105,002,2021_Sep_29_1602,joplin1,2021.2.3,60.006030477342456,
_train_cond.csv,0 1 0 0 0 0 0 0 1 0,2,categoryB,j,,,0,4,4,2,1,10,24,8,,,,,,,,,,,,,,,,,,,j,1,0.7437407079851255,,,,,,,,,,,,,,,,,,,,,,,,,,,,,,,,,,,,105,002,2021_Sep_29_1602,joplin1,2021.2.3,60.006030477342456,
_train_cond.csv,0 0 1 0 1 1 0 1 0 0,4,categoryB,j,,,0,4,4,2,1,11,25,9,,,,,,,,,,,,,,,,,,,f,0,1.0216583330184221,,,,,,,,,,,,,,,,,,,,,,,,,,,,,,,,,,,,105,002,2021_Sep_29_1602,joplin1,2021.2.3,60.006030477342456,
_train_cond.csv,1 1 0 1 0 0 1 0 1 1,6,categoryA,f,,,0,4,4,2,1,12,26,2,,,,,,,,,,,,,,,,,,,f,1,0.7212598340120167,,,,,,,,,,,,,,,,,,,,,,,,,,,,,,,,,,,,105,002,2021_Sep_29_1602,joplin1,2021.2.3,60.006030477342456,
_train_cond.csv,0 0 1 1 1 1 1 1 0 0,6,categoryA,f,,,0,4,4,2,1,13,27,6,,,,,,,,,,,,,,,,,,,j,0,1.0658001250121742,,,,,,,,,,,,,,,,,,,,,,,,,,,,,,,,,,,,105,002,2021_Sep_29_1602,joplin1,2021.2.3,60.006030477342456,
_train_cond.csv,0 1 1 1 1 1 1 1 1 0,8,categoryA,f,,,0,4,4,2,2,0,28,0,,,,,,,,,,,,,,,,,,,f,1,0.709173540933989,,,,,,,,,,,,,,,,,,,,,,,,,,,,,,,,,,,,105,002,2021_Sep_29_1602,joplin1,2021.2.3,60.006030477342456,
_train_cond.csv,1 1 1 0 1 1 0 1 1 1,8,categoryA,f,,,0,4,4,2,2,1,29,4,,,,,,,,,,,,,,,,,,,f,1,1.3180502499453723,,,,,,,,,,,,,,,,,,,,,,,,,,,,,,,,,,,,105,002,2021_Sep_29_1602,joplin1,2021.2.3,60.006030477342456,
_train_cond.csv,0 0 1 1 1 1 1 1 0 0,6,categoryA,f,,,0,4,4,2,2,2,30,6,,,,,,,,,,,,,,,,,,,j,0,0.04644416691735387,,,,,,,,,,,,,,,,,,,,,,,,,,,,,,,,,,,,105,002,2021_Sep_29_1602,joplin1,2021.2.3,60.006030477342456,
_train_cond.csv,0 0 1 0 1 1 0 1 0 0,4,categoryB,j,,,0,4,4,2,2,3,31,9,,,,,,,,,,,,,,,,,,,j,1,0.2908233330817893,,,,,,,,,,,,,,,,,,,,,,,,,,,,,,,,,,,,105,002,2021_Sep_29_1602,joplin1,2021.2.3,60.006030477342456,
_train_cond.csv,0 0 0 1 1 1 1 0 0 0,4,categoryB,j,,,0,4,4,2,2,4,32,10,,,,,,,,,,,,,,,,,,,f,0,0.43712104205042124,,,,,,,,,,,,,,,,,,,,,,,,,,,,,,,,,,,,105,002,2021_Sep_29_1602,joplin1,2021.2.3,60.006030477342456,
_train_cond.csv,0 0 1 0 0 0 0 1 0 0,2,categoryB,j,,,0,4,4,2,2,5,33,12,,,,,,,,,,,,,,,,,,,j,1,0.7846060000592843,,,,,,,,,,,,,,,,,,,,,,,,,,,,,,,,,,,,105,002,2021_Sep_29_1602,joplin1,2021.2.3,60.006030477342456,
_train_cond.csv,1 0 0 0 0 0 0 0 0 1,2,categoryB,j,,,0,4,4,2,2,6,34,7,,,,,,,,,,,,,,,,,,,j,1,0.941807416966185,,,,,,,,,,,,,,,,,,,,,,,,,,,,,,,,,,,,105,002,2021_Sep_29_1602,joplin1,2021.2.3,60.006030477342456,
_train_cond.csv,1 1 0 1 0 0 1 0 1 1,6,categoryA,f,,,0,4,4,2,2,7,35,2,,,,,,,,,,,,,,,,,,,f,1,0.7102554159937426,,,,,,,,,,,,,,,,,,,,,,,,,,,,,,,,,,,,105,002,2021_Sep_29_1602,joplin1,2021.2.3,60.006030477342456,
_train_cond.csv,1 1 0 0 0 0 0 0 1 1,4,categoryB,j,,,0,4,4,2,2,8,36,13,,,,,,,,,,,,,,,,,,,j,1,0.12008016707841307,,,,,,,,,,,,,,,,,,,,,,,,,,,,,,,,,,,,105,002,2021_Sep_29_1602,joplin1,2021.2.3,60.006030477342456,
_train_cond.csv,1 1 1 0 0 0 0 1 1 1,6,categoryA,f,,,0,4,4,2,2,9,37,3,,,,,,,,,,,,,,,,,,,j,0,1.0564846670022234,,,,,,,,,,,,,,,,,,,,,,,,,,,,,,,,,,,,105,002,2021_Sep_29_1602,joplin1,2021.2.3,60.006030477342456,
_train_cond.csv,1 0 1 1 1 1 1 1 0 1,8,categoryA,f,,,0,4,4,2,2,10,38,1,,,,,,,,,,,,,,,,,,,j,0,1.5797353750094771,,,,,,,,,,,,,,,,,,,,,,,,,,,,,,,,,,,,105,002,2021_Sep_29_1602,joplin1,2021.2.3,60.006030477342456,
_train_cond.csv,0 0 0 1 0 0 1 0 0 0,2,categoryB,j,,,0,4,4,2,2,11,39,11,,,,,,,,,,,,,,,,,,,j,1,1.4984465839806944,,,,,,,,,,,,,,,,,,,,,,,,,,,,,,,,,,,,105,002,2021_Sep_29_1602,joplin1,2021.2.3,60.006030477342456,
_train_cond.csv,0 1 0 0 0 0 0 0 1 0,2,categoryB,j,,,0,4,4,2,2,12,40,8,,,,,,,,,,,,,,,,,,,j,1,1.3083498750347644,,,,,,,,,,,,,,,,,,,,,,,,,,,,,,,,,,,,105,002,2021_Sep_29_1602,joplin1,2021.2.3,60.006030477342456,
_train_cond.csv,1 1 0 1 1 1 1 0 1 1,8,categoryA,f,,,0,4,4,2,2,13,41,5,,,,,,,,,,,,,,,,,,,j,0,1.3344694169936702,,,,,,,,,,,,,,,,,,,,,,,,,,,,,,,,,,,,105,002,2021_Sep_29_1602,joplin1,2021.2.3,60.006030477342456,
_train_cond.csv,,,,,,,0,4,4,2,,,,,,,,,,,,,,,,,,,,,,,,,,space,20.606695541995578,,,,,,,,,,,,,,,,,,,,,,,,,,,,,,,,,,105,002,2021_Sep_29_1602,joplin1,2021.2.3,60.006030477342456,
_train_cond.csv,0 0 1 1 1 1 1 1 0 0,6,categoryA,f,,,0,5,5,3,0,0,0,6,,,,,,,,,,,,,,,,,,,j,0,1.0904762919526547,,,,,,,,,,,,,,,,,,,,,,,,,,,,,,,,,,,,105,002,2021_Sep_29_1602,joplin1,2021.2.3,60.006030477342456,
_train_cond.csv,1 0 0 0 0 0 0 0 0 1,2,categoryB,j,,,0,5,5,3,0,1,1,7,,,,,,,,,,,,,,,,,,,j,1,1.2452755419071764,,,,,,,,,,,,,,,,,,,,,,,,,,,,,,,,,,,,105,002,2021_Sep_29_1602,joplin1,2021.2.3,60.006030477342456,
_train_cond.csv,0 0 1 0 1 1 0 1 0 0,4,categoryB,j,,,0,5,5,3,0,2,2,9,,,,,,,,,,,,,,,,,,,j,1,0.7603677910519764,,,,,,,,,,,,,,,,,,,,,,,,,,,,,,,,,,,,105,002,2021_Sep_29_1602,joplin1,2021.2.3,60.006030477342456,
_train_cond.csv,1 1 1 0 0 0 0 1 1 1,6,categoryA,f,,,0,5,5,3,0,3,3,3,,,,,,,,,,,,,,,,,,,f,1,0.7198340829927474,,,,,,,,,,,,,,,,,,,,,,,,,,,,,,,,,,,,105,002,2021_Sep_29_1602,joplin1,2021.2.3,60.006030477342456,
_train_cond.csv,0 1 1 1 1 1 1 1 1 0,8,categoryA,f,,,0,5,5,3,0,4,4,0,,,,,,,,,,,,,,,,,,,f,1,0.7036113749491051,,,,,,,,,,,,,,,,,,,,,,,,,,,,,,,,,,,,105,002,2021_Sep_29_1602,joplin1,2021.2.3,60.006030477342456,
_train_cond.csv,0 0 0 1 0 0 1 0 0 0,2,categoryB,j,,,0,5,5,3,0,5,5,11,,,,,,,,,,,,,,,,,,,j,1,0.4726220000302419,,,,,,,,,,,,,,,,,,,,,,,,,,,,,,,,,,,,105,002,2021_Sep_29_1602,joplin1,2021.2.3,60.006030477342456,
_train_cond.csv,1 1 0 0 0 0 0 0 1 1,4,categoryB,j,,,0,5,5,3,0,6,6,13,,,,,,,,,,,,,,,,,,,j,1,0.5955517500406131,,,,,,,,,,,,,,,,,,,,,,,,,,,,,,,,,,,,105,002,2021_Sep_29_1602,joplin1,2021.2.3,60.006030477342456,
_train_cond.csv,0 0 0 1 1 1 1 0 0 0,4,categoryB,j,,,0,5,5,3,0,7,7,10,,,,,,,,,,,,,,,,,,,j,1,1.0338440410559997,,,,,,,,,,,,,,,,,,,,,,,,,,,,,,,,,,,,105,002,2021_Sep_29_1602,joplin1,2021.2.3,60.006030477342456,
_train_cond.csv,1 1 0 1 1 1 1 0 1 1,8,categoryA,f,,,0,5,5,3,0,8,8,5,,,,,,,,,,,,,,,,,,,f,1,0.4942332920618355,,,,,,,,,,,,,,,,,,,,,,,,,,,,,,,,,,,,105,002,2021_Sep_29_1602,joplin1,2021.2.3,60.006030477342456,
_train_cond.csv,1 1 0 1 0 0 1 0 1 1,6,categoryA,f,,,0,5,5,3,0,9,9,2,,,,,,,,,,,,,,,,,,,f,1,1.3037509579444304,,,,,,,,,,,,,,,,,,,,,,,,,,,,,,,,,,,,105,002,2021_Sep_29_1602,joplin1,2021.2.3,60.006030477342456,
_train_cond.csv,1 1 1 0 1 1 0 1 1 1,8,categoryA,f,,,0,5,5,3,0,10,10,4,,,,,,,,,,,,,,,,,,,f,1,0.5930115830851719,,,,,,,,,,,,,,,,,,,,,,,,,,,,,,,,,,,,105,002,2021_Sep_29_1602,joplin1,2021.2.3,60.006030477342456,
_train_cond.csv,0 0 1 0 0 0 0 1 0 0,2,categoryB,j,,,0,5,5,3,0,11,11,12,,,,,,,,,,,,,,,,,,,j,1,0.8470383329549804,,,,,,,,,,,,,,,,,,,,,,,,,,,,,,,,,,,,105,002,2021_Sep_29_1602,joplin1,2021.2.3,60.006030477342456,
_train_cond.csv,1 0 1 1 1 1 1 1 0 1,8,categoryA,f,,,0,5,5,3,0,12,12,1,,,,,,,,,,,,,,,,,,,f,1,1.2495545831043273,,,,,,,,,,,,,,,,,,,,,,,,,,,,,,,,,,,,105,002,2021_Sep_29_1602,joplin1,2021.2.3,60.006030477342456,
_train_cond.csv,0 1 0 0 0 0 0 0 1 0,2,categoryB,j,,,0,5,5,3,0,13,13,8,,,,,,,,,,,,,,,,,,,j,1,0.6523977500619367,,,,,,,,,,,,,,,,,,,,,,,,,,,,,,,,,,,,105,002,2021_Sep_29_1602,joplin1,2021.2.3,60.006030477342456,
_train_cond.csv,0 1 0 0 0 0 0 0 1 0,2,categoryB,j,,,0,5,5,3,1,0,14,8,,,,,,,,,,,,,,,,,,,j,1,0.20039695804007351,,,,,,,,,,,,,,,,,,,,,,,,,,,,,,,,,,,,105,002,2021_Sep_29_1602,joplin1,2021.2.3,60.006030477342456,
_train_cond.csv,0 1 1 1 1 1 1 1 1 0,8,categoryA,f,,,0,5,5,3,1,1,15,0,,,,,,,,,,,,,,,,,,,f,1,2.077860458055511,,,,,,,,,,,,,,,,,,,,,,,,,,,,,,,,,,,,105,002,2021_Sep_29_1602,joplin1,2021.2.3,60.006030477342456,
_train_cond.csv,1 0 0 0 0 0 0 0 0 1,2,categoryB,j,,,0,5,5,3,1,2,16,7,,,,,,,,,,,,,,,,,,,j,1,1.1043355419533327,,,,,,,,,,,,,,,,,,,,,,,,,,,,,,,,,,,,105,002,2021_Sep_29_1602,joplin1,2021.2.3,60.006030477342456,
_train_cond.csv,1 1 1 0 1 1 0 1 1 1,8,categoryA,f,,,0,5,5,3,1,3,17,4,,,,,,,,,,,,,,,,,,,f,1,0.40115225000772625,,,,,,,,,,,,,,,,,,,,,,,,,,,,,,,,,,,,105,002,2021_Sep_29_1602,joplin1,2021.2.3,60.006030477342456,
_train_cond.csv,1 1 0 1 0 0 1 0 1 1,6,categoryA,f,,,0,5,5,3,1,4,18,2,,,,,,,,,,,,,,,,,,,f,1,0.7739945000503212,,,,,,,,,,,,,,,,,,,,,,,,,,,,,,,,,,,,105,002,2021_Sep_29_1602,joplin1,2021.2.3,60.006030477342456,
_train_cond.csv,1 1 1 0 0 0 0 1 1 1,6,categoryA,f,,,0,5,5,3,1,5,19,3,,,,,,,,,,,,,,,,,,,f,1,1.2292280830442905,,,,,,,,,,,,,,,,,,,,,,,,,,,,,,,,,,,,105,002,2021_Sep_29_1602,joplin1,2021.2.3,60.006030477342456,
_train_cond.csv,1 1 0 1 1 1 1 0 1 1,8,categoryA,f,,,0,5,5,3,1,6,20,5,,,,,,,,,,,,,,,,,,,j,0,0.7692967919865623,,,,,,,,,,,,,,,,,,,,,,,,,,,,,,,,,,,,105,002,2021_Sep_29_1602,joplin1,2021.2.3,60.006030477342456,
_train_cond.csv,0 0 1 0 0 0 0 1 0 0,2,categoryB,j,,,0,5,5,3,1,7,21,12,,,,,,,,,,,,,,,,,,,f,0,1.448764625005424,,,,,,,,,,,,,,,,,,,,,,,,,,,,,,,,,,,,105,002,2021_Sep_29_1602,joplin1,2021.2.3,60.006030477342456,
_train_cond.csv,1 0 1 1 1 1 1 1 0 1,8,categoryA,f,,,0,5,5,3,1,8,22,1,,,,,,,,,,,,,,,,,,,j,0,1.2842365000396967,,,,,,,,,,,,,,,,,,,,,,,,,,,,,,,,,,,,105,002,2021_Sep_29_1602,joplin1,2021.2.3,60.006030477342456,
_train_cond.csv,0 0 0 1 1 1 1 0 0 0,4,categoryB,j,,,0,5,5,3,1,9,23,10,,,,,,,,,,,,,,,,,,,j,1,0.5192042500711977,,,,,,,,,,,,,,,,,,,,,,,,,,,,,,,,,,,,105,002,2021_Sep_29_1602,joplin1,2021.2.3,60.006030477342456,
_train_cond.csv,0 0 1 1 1 1 1 1 0 0,6,categoryA,f,,,0,5,5,3,1,10,24,6,,,,,,,,,,,,,,,,,,,f,1,1.144039542065002,,,,,,,,,,,,,,,,,,,,,,,,,,,,,,,,,,,,105,002,2021_Sep_29_1602,joplin1,2021.2.3,60.006030477342456,
_train_cond.csv,0 0 0 1 0 0 1 0 0 0,2,categoryB,j,,,0,5,5,3,1,11,25,11,,,,,,,,,,,,,,,,,,,j,1,0.5525222909636796,,,,,,,,,,,,,,,,,,,,,,,,,,,,,,,,,,,,105,002,2021_Sep_29_1602,joplin1,2021.2.3,60.006030477342456,
_train_cond.csv,1 1 0 0 0 0 0 0 1 1,4,categoryB,j,,,0,5,5,3,1,12,26,13,,,,,,,,,,,,,,,,,,,j,1,1.336190624977462,,,,,,,,,,,,,,,,,,,,,,,,,,,,,,,,,,,,105,002,2021_Sep_29_1602,joplin1,2021.2.3,60.006030477342456,
_train_cond.csv,0 0 1 0 1 1 0 1 0 0,4,categoryB,j,,,0,5,5,3,1,13,27,9,,,,,,,,,,,,,,,,,,,j,1,0.9120848330203444,,,,,,,,,,,,,,,,,,,,,,,,,,,,,,,,,,,,105,002,2021_Sep_29_1602,joplin1,2021.2.3,60.006030477342456,
_train_cond.csv,1 1 0 1 0 0 1 0 1 1,6,categoryA,f,,,0,5,5,3,2,0,28,2,,,,,,,,,,,,,,,,,,,f,1,0.20954858302138746,,,,,,,,,,,,,,,,,,,,,,,,,,,,,,,,,,,,105,002,2021_Sep_29_1602,joplin1,2021.2.3,60.006030477342456,
_train_cond.csv,0 0 1 0 1 1 0 1 0 0,4,categoryB,j,,,0,5,5,3,2,1,29,9,,,,,,,,,,,,,,,,,,,j,1,0.7989824170945212,,,,,,,,,,,,,,,,,,,,,,,,,,,,,,,,,,,,105,002,2021_Sep_29_1602,joplin1,2021.2.3,60.006030477342456,
_train_cond.csv,0 0 0 1 1 1 1 0 0 0,4,categoryB,j,,,0,5,5,3,2,2,30,10,,,,,,,,,,,,,,,,,,,j,1,1.0926357919815928,,,,,,,,,,,,,,,,,,,,,,,,,,,,,,,,,,,,105,002,2021_Sep_29_1602,joplin1,2021.2.3,60.006030477342456,
_train_cond.csv,0 1 0 0 0 0 0 0 1 0,2,categoryB,j,,,0,5,5,3,2,3,31,8,,,,,,,,,,,,,,,,,,,j,1,1.3988535410026088,,,,,,,,,,,,,,,,,,,,,,,,,,,,,,,,,,,,105,002,2021_Sep_29_1602,joplin1,2021.2.3,60.006030477342456,
_train_cond.csv,1 1 1 0 1 1 0 1 1 1,8,categoryA,f,,,0,5,5,3,2,4,32,4,,,,,,,,,,,,,,,,,,,f,1,0.7408100420143455,,,,,,,,,,,,,,,,,,,,,,,,,,,,,,,,,,,,105,002,2021_Sep_29_1602,joplin1,2021.2.3,60.006030477342456,
_train_cond.csv,1 0 1 1 1 1 1 1 0 1,8,categoryA,f,,,0,5,5,3,2,5,33,1,,,,,,,,,,,,,,,,,,,f,1,0.9249320409726351,,,,,,,,,,,,,,,,,,,,,,,,,,,,,,,,,,,,105,002,2021_Sep_29_1602,joplin1,2021.2.3,60.006030477342456,
_train_cond.csv,0 0 1 1 1 1 1 1 0 0,6,categoryA,f,,,0,5,5,3,2,6,34,6,,,,,,,,,,,,,,,,,,,f,1,0.8656087500276044,,,,,,,,,,,,,,,,,,,,,,,,,,,,,,,,,,,,105,002,2021_Sep_29_1602,joplin1,2021.2.3,60.006030477342456,
_train_cond.csv,1 0 0 0 0 0 0 0 0 1,2,categoryB,j,,,0,5,5,3,2,7,35,7,,,,,,,,,,,,,,,,,,,j,1,1.1338089579949155,,,,,,,,,,,,,,,,,,,,,,,,,,,,,,,,,,,,105,002,2021_Sep_29_1602,joplin1,2021.2.3,60.006030477342456,
_train_cond.csv,0 0 1 0 0 0 0 1 0 0,2,categoryB,j,,,0,5,5,3,2,8,36,12,,,,,,,,,,,,,,,,,,,j,1,1.4127646250417456,,,,,,,,,,,,,,,,,,,,,,,,,,,,,,,,,,,,105,002,2021_Sep_29_1602,joplin1,2021.2.3,60.006030477342456,
_train_cond.csv,1 1 0 1 1 1 1 0 1 1,8,categoryA,f,,,0,5,5,3,2,9,37,5,,,,,,,,,,,,,,,,,,,f,1,1.1132694999687374,,,,,,,,,,,,,,,,,,,,,,,,,,,,,,,,,,,,105,002,2021_Sep_29_1602,joplin1,2021.2.3,60.006030477342456,
_train_cond.csv,0 0 0 1 0 0 1 0 0 0,2,categoryB,j,,,0,5,5,3,2,10,38,11,,,,,,,,,,,,,,,,,,,j,1,0.9623390840133652,,,,,,,,,,,,,,,,,,,,,,,,,,,,,,,,,,,,105,002,2021_Sep_29_1602,joplin1,2021.2.3,60.006030477342456,
_train_cond.csv,0 1 1 1 1 1 1 1 1 0,8,categoryA,f,,,0,5,5,3,2,11,39,0,,,,,,,,,,,,,,,,,,,f,1,0.9538147499551997,,,,,,,,,,,,,,,,,,,,,,,,,,,,,,,,,,,,105,002,2021_Sep_29_1602,joplin1,2021.2.3,60.006030477342456,
_train_cond.csv,1 1 0 0 0 0 0 0 1 1,4,categoryB,j,,,0,5,5,3,2,12,40,13,,,,,,,,,,,,,,,,,,,j,1,0.5762527919141576,,,,,,,,,,,,,,,,,,,,,,,,,,,,,,,,,,,,105,002,2021_Sep_29_1602,joplin1,2021.2.3,60.006030477342456,
_train_cond.csv,1 1 1 0 0 0 0 1 1 1,6,categoryA,f,,,0,5,5,3,2,13,41,3,,,,,,,,,,,,,,,,,,,f,1,0.5912697910098359,,,,,,,,,,,,,,,,,,,,,,,,,,,,,,,,,,,,105,002,2021_Sep_29_1602,joplin1,2021.2.3,60.006030477342456,
_train_cond.csv,,,,,,,0,5,5,3,,,,,,,,,,,,,,,,,,,,,,,,,,space,14.149401832954027,,,,,,,,,,,,,,,,,,,,,,,,,,,,,,,,,,105,002,2021_Sep_29_1602,joplin1,2021.2.3,60.006030477342456,
_train_cond.csv,1 1 0 1 0 0 1 0 1 1,6,categoryA,f,,,0,6,6,1,0,0,0,2,,,,,,,,,,,,,,,,,,,f,1,0.9239823339739814,,,,,,,,,,,,,,,,,,,,,,,,,,,,,,,,,,,,105,002,2021_Sep_29_1602,joplin1,2021.2.3,60.006030477342456,
_train_cond.csv,1 1 0 0 0 0 0 0 1 1,4,categoryB,j,,,0,6,6,1,0,1,1,13,,,,,,,,,,,,,,,,,,,j,1,0.22128816705662757,,,,,,,,,,,,,,,,,,,,,,,,,,,,,,,,,,,,105,002,2021_Sep_29_1602,joplin1,2021.2.3,60.006030477342456,
_train_cond.csv,0 1 0 0 0 0 0 0 1 0,2,categoryB,j,,,0,6,6,1,0,2,2,8,,,,,,,,,,,,,,,,,,,j,1,0.8025809170212597,,,,,,,,,,,,,,,,,,,,,,,,,,,,,,,,,,,,105,002,2021_Sep_29_1602,joplin1,2021.2.3,60.006030477342456,
_train_cond.csv,0 0 1 1 1 1 1 1 0 0,6,categoryA,f,,,0,6,6,1,0,3,3,6,,,,,,,,,,,,,,,,,,,f,1,0.6153738339198753,,,,,,,,,,,,,,,,,,,,,,,,,,,,,,,,,,,,105,002,2021_Sep_29_1602,joplin1,2021.2.3,60.006030477342456,
_train_cond.csv,1 1 1 0 1 1 0 1 1 1,8,categoryA,f,,,0,6,6,1,0,4,4,4,,,,,,,,,,,,,,,,,,,f,1,1.019831040990539,,,,,,,,,,,,,,,,,,,,,,,,,,,,,,,,,,,,105,002,2021_Sep_29_1602,joplin1,2021.2.3,60.006030477342456,
_train_cond.csv,0 0 1 0 1 1 0 1 0 0,4,categoryB,j,,,0,6,6,1,0,5,5,9,,,,,,,,,,,,,,,,,,,j,1,0.03378470800817013,,,,,,,,,,,,,,,,,,,,,,,,,,,,,,,,,,,,105,002,2021_Sep_29_1602,joplin1,2021.2.3,60.006030477342456,
_train_cond.csv,0 1 1 1 1 1 1 1 1 0,8,categoryA,f,,,0,6,6,1,0,6,6,0,,,,,,,,,,,,,,,,,,,f,1,0.09381045796908438,,,,,,,,,,,,,,,,,,,,,,,,,,,,,,,,,,,,105,002,2021_Sep_29_1602,joplin1,2021.2.3,60.006030477342456,
_train_cond.csv,1 0 1 1 1 1 1 1 0 1,8,categoryA,f,,,0,6,6,1,0,7,7,1,,,,,,,,,,,,,,,,,,,f,1,0.24761058297008276,,,,,,,,,,,,,,,,,,,,,,,,,,,,,,,,,,,,105,002,2021_Sep_29_1602,joplin1,2021.2.3,60.006030477342456,
_train_cond.csv,1 1 1 0 0 0 0 1 1 1,6,categoryA,f,,,0,6,6,1,0,8,8,3,,,,,,,,,,,,,,,,,,,f,1,0.49313724995590746,,,,,,,,,,,,,,,,,,,,,,,,,,,,,,,,,,,,105,002,2021_Sep_29_1602,joplin1,2021.2.3,60.006030477342456,
_train_cond.csv,1 1 0 1 1 1 1 0 1 1,8,categoryA,f,,,0,6,6,1,0,9,9,5,,,,,,,,,,,,,,,,,,,j,0,0.5983461659634486,,,,,,,,,,,,,,,,,,,,,,,,,,,,,,,,,,,,105,002,2021_Sep_29_1602,joplin1,2021.2.3,60.006030477342456,
_train_cond.csv,0 0 0 1 0 0 1 0 0 0,2,categoryB,j,,,0,6,6,1,0,10,10,11,,,,,,,,,,,,,,,,,,,j,1,0.18824099993798882,,,,,,,,,,,,,,,,,,,,,,,,,,,,,,,,,,,,105,002,2021_Sep_29_1602,joplin1,2021.2.3,60.006030477342456,
_train_cond.csv,0 0 0 1 1 1 1 0 0 0,4,categoryB,j,,,0,6,6,1,0,11,11,10,,,,,,,,,,,,,,,,,,,j,1,0.8495626250514761,,,,,,,,,,,,,,,,,,,,,,,,,,,,,,,,,,,,105,002,2021_Sep_29_1602,joplin1,2021.2.3,60.006030477342456,
_train_cond.csv,0 0 1 0 0 0 0 1 0 0,2,categoryB,j,,,0,6,6,1,0,12,12,12,,,,,,,,,,,,,,,,,,,j,1,1.4144690829562023,,,,,,,,,,,,,,,,,,,,,,,,,,,,,,,,,,,,105,002,2021_Sep_29_1602,joplin1,2021.2.3,60.006030477342456,
_train_cond.csv,1 0 0 0 0 0 0 0 0 1,2,categoryB,j,,,0,6,6,1,0,13,13,7,,,,,,,,,,,,,,,,,,,j,1,0.48911349999252707,,,,,,,,,,,,,,,,,,,,,,,,,,,,,,,,,,,,105,002,2021_Sep_29_1602,joplin1,2021.2.3,60.006030477342456,
_train_cond.csv,0 0 1 1 1 1 1 1 0 0,6,categoryA,f,,,0,6,6,1,1,0,14,6,,,,,,,,,,,,,,,,,,,j,0,0.9397786250337958,,,,,,,,,,,,,,,,,,,,,,,,,,,,,,,,,,,,105,002,2021_Sep_29_1602,joplin1,2021.2.3,60.006030477342456,
_train_cond.csv,1 1 0 1 0 0 1 0 1 1,6,categoryA,f,,,0,6,6,1,1,1,15,2,,,,,,,,,,,,,,,,,,,f,1,0.06803370895795524,,,,,,,,,,,,,,,,,,,,,,,,,,,,,,,,,,,,105,002,2021_Sep_29_1602,joplin1,2021.2.3,60.006030477342456,
_train_cond.csv,0 0 0 1 0 0 1 0 0 0,2,categoryB,j,,,0,6,6,1,1,2,16,11,,,,,,,,,,,,,,,,,,,j,1,1.61543112504296,,,,,,,,,,,,,,,,,,,,,,,,,,,,,,,,,,,,105,002,2021_Sep_29_1602,joplin1,2021.2.3,60.006030477342456,
_train_cond.csv,0 0 0 1 1 1 1 0 0 0,4,categoryB,j,,,0,6,6,1,1,3,17,10,,,,,,,,,,,,,,,,,,,j,1,0.2680872499477118,,,,,,,,,,,,,,,,,,,,,,,,,,,,,,,,,,,,105,002,2021_Sep_29_1602,joplin1,2021.2.3,60.006030477342456,
_train_cond.csv,0 1 0 0 0 0 0 0 1 0,2,categoryB,j,,,0,6,6,1,1,4,18,8,,,,,,,,,,,,,,,,,,,j,1,0.7836457500234246,,,,,,,,,,,,,,,,,,,,,,,,,,,,,,,,,,,,105,002,2021_Sep_29_1602,joplin1,2021.2.3,60.006030477342456,
_train_cond.csv,1 0 0 0 0 0 0 0 0 1,2,categoryB,j,,,0,6,6,1,1,5,19,7,,,,,,,,,,,,,,,,,,,j,1,0.04555499996058643,,,,,,,,,,,,,,,,,,,,,,,,,,,,,,,,,,,,105,002,2021_Sep_29_1602,joplin1,2021.2.3,60.006030477342456,
_train_cond.csv,1 1 0 0 0 0 0 0 1 1,4,categoryB,j,,,0,6,6,1,1,6,20,13,,,,,,,,,,,,,,,,,,,j,1,0.14587608398869634,,,,,,,,,,,,,,,,,,,,,,,,,,,,,,,,,,,,105,002,2021_Sep_29_1602,joplin1,2021.2.3,60.006030477342456,
_train_cond.csv,0 0 1 0 1 1 0 1 0 0,4,categoryB,j,,,0,6,6,1,1,7,21,9,,,,,,,,,,,,,,,,,,,j,1,1.2657966669648886,,,,,,,,,,,,,,,,,,,,,,,,,,,,,,,,,,,,105,002,2021_Sep_29_1602,joplin1,2021.2.3,60.006030477342456,
_train_cond.csv,1 1 0 1 1 1 1 0 1 1,8,categoryA,f,,,0,6,6,1,1,8,22,5,,,,,,,,,,,,,,,,,,,f,1,0.6459134160540998,,,,,,,,,,,,,,,,,,,,,,,,,,,,,,,,,,,,105,002,2021_Sep_29_1602,joplin1,2021.2.3,60.006030477342456,
_train_cond.csv,1 1 1 0 1 1 0 1 1 1,8,categoryA,f,,,0,6,6,1,1,9,23,4,,,,,,,,,,,,,,,,,,,f,1,0.7705029170028865,,,,,,,,,,,,,,,,,,,,,,,,,,,,,,,,,,,,105,002,2021_Sep_29_1602,joplin1,2021.2.3,60.006030477342456,
_train_cond.csv,0 1 1 1 1 1 1 1 1 0,8,categoryA,f,,,0,6,6,1,1,10,24,0,,,,,,,,,,,,,,,,,,,f,1,0.6729618749814108,,,,,,,,,,,,,,,,,,,,,,,,,,,,,,,,,,,,105,002,2021_Sep_29_1602,joplin1,2021.2.3,60.006030477342456,
_train_cond.csv,0 0 1 0 0 0 0 1 0 0,2,categoryB,j,,,0,6,6,1,1,11,25,12,,,,,,,,,,,,,,,,,,,j,1,1.667640957981348,,,,,,,,,,,,,,,,,,,,,,,,,,,,,,,,,,,,105,002,2021_Sep_29_1602,joplin1,2021.2.3,60.006030477342456,
_train_cond.csv,1 0 1 1 1 1 1 1 0 1,8,categoryA,f,,,0,6,6,1,1,12,26,1,,,,,,,,,,,,,,,,,,,f,1,1.247634332976304,,,,,,,,,,,,,,,,,,,,,,,,,,,,,,,,,,,,105,002,2021_Sep_29_1602,joplin1,2021.2.3,60.006030477342456,
_train_cond.csv,1 1 1 0 0 0 0 1 1 1,6,categoryA,f,,,0,6,6,1,1,13,27,3,,,,,,,,,,,,,,,,,,,j,0,0.921810416970402,,,,,,,,,,,,,,,,,,,,,,,,,,,,,,,,,,,,105,002,2021_Sep_29_1602,joplin1,2021.2.3,60.006030477342456,
_train_cond.csv,1 0 1 1 1 1 1 1 0 1,8,categoryA,f,,,0,6,6,1,2,0,28,1,,,,,,,,,,,,,,,,,,,f,1,0.09891437506303191,,,,,,,,,,,,,,,,,,,,,,,,,,,,,,,,,,,,105,002,2021_Sep_29_1602,joplin1,2021.2.3,60.006030477342456,
_train_cond.csv,0 0 0 1 1 1 1 0 0 0,4,categoryB,j,,,0,6,6,1,2,1,29,10,,,,,,,,,,,,,,,,,,,f,0,0.307727542007342,,,,,,,,,,,,,,,,,,,,,,,,,,,,,,,,,,,,105,002,2021_Sep_29_1602,joplin1,2021.2.3,60.006030477342456,
_train_cond.csv,1 1 1 0 0 0 0 1 1 1,6,categoryA,f,,,0,6,6,1,2,2,30,3,,,,,,,,,,,,,,,,,,,f,1,0.8691377090290189,,,,,,,,,,,,,,,,,,,,,,,,,,,,,,,,,,,,105,002,2021_Sep_29_1602,joplin1,2021.2.3,60.006030477342456,
_train_cond.csv,0 0 1 1 1 1 1 1 0 0,6,categoryA,f,,,0,6,6,1,2,3,31,6,,,,,,,,,,,,,,,,,,,f,1,0.3688160830643028,,,,,,,,,,,,,,,,,,,,,,,,,,,,,,,,,,,,105,002,2021_Sep_29_1602,joplin1,2021.2.3,60.006030477342456,
_train_cond.csv,0 0 1 0 1 1 0 1 0 0,4,categoryB,j,,,0,6,6,1,2,4,32,9,,,,,,,,,,,,,,,,,,,j,1,0.047073125024326146,,,,,,,,,,,,,,,,,,,,,,,,,,,,,,,,,,,,105,002,2021_Sep_29_1602,joplin1,2021.2.3,60.006030477342456,
_train_cond.csv,1 0 0 0 0 0 0 0 0 1,2,categoryB,j,,,0,6,6,1,2,5,33,7,,,,,,,,,,,,,,,,,,,j,1,0.362403207924217,,,,,,,,,,,,,,,,,,,,,,,,,,,,,,,,,,,,105,002,2021_Sep_29_1602,joplin1,2021.2.3,60.006030477342456,
_train_cond.csv,1 1 0 1 0 0 1 0 1 1,6,categoryA,f,,,0,6,6,1,2,6,34,2,,,,,,,,,,,,,,,,,,,f,1,0.36992237507365644,,,,,,,,,,,,,,,,,,,,,,,,,,,,,,,,,,,,105,002,2021_Sep_29_1602,joplin1,2021.2.3,60.006030477342456,
_train_cond.csv,0 1 1 1 1 1 1 1 1 0,8,categoryA,f,,,0,6,6,1,2,7,35,0,,,,,,,,,,,,,,,,,,,f,1,1.4731631249887869,,,,,,,,,,,,,,,,,,,,,,,,,,,,,,,,,,,,105,002,2021_Sep_29_1602,joplin1,2021.2.3,60.006030477342456,
_train_cond.csv,0 0 0 1 0 0 1 0 0 0,2,categoryB,j,,,0,6,6,1,2,8,36,11,,,,,,,,,,,,,,,,,,,j,1,0.09889895806554705,,,,,,,,,,,,,,,,,,,,,,,,,,,,,,,,,,,,105,002,2021_Sep_29_1602,joplin1,2021.2.3,60.006030477342456,
_train_cond.csv,1 1 1 0 1 1 0 1 1 1,8,categoryA,f,,,0,6,6,1,2,9,37,4,,,,,,,,,,,,,,,,,,,f,1,0.24534945795312524,,,,,,,,,,,,,,,,,,,,,,,,,,,,,,,,,,,,105,002,2021_Sep_29_1602,joplin1,2021.2.3,60.006030477342456,
_train_cond.csv,1 1 0 1 1 1 1 0 1 1,8,categoryA,f,,,0,6,6,1,2,10,38,5,,,,,,,,,,,,,,,,,,,j,0,0.6814029160887003,,,,,,,,,,,,,,,,,,,,,,,,,,,,,,,,,,,,105,002,2021_Sep_29_1602,joplin1,2021.2.3,60.006030477342456,
_train_cond.csv,0 0 1 0 0 0 0 1 0 0,2,categoryB,j,,,0,6,6,1,2,11,39,12,,,,,,,,,,,,,,,,,,,j,1,0.8593436669325456,,,,,,,,,,,,,,,,,,,,,,,,,,,,,,,,,,,,105,002,2021_Sep_29_1602,joplin1,2021.2.3,60.006030477342456,
_train_cond.csv,1 1 0 0 0 0 0 0 1 1,4,categoryB,j,,,0,6,6,1,2,12,40,13,,,,,,,,,,,,,,,,,,,j,1,0.17438054096419364,,,,,,,,,,,,,,,,,,,,,,,,,,,,,,,,,,,,105,002,2021_Sep_29_1602,joplin1,2021.2.3,60.006030477342456,
_train_cond.csv,0 1 0 0 0 0 0 0 1 0,2,categoryB,j,,,0,6,6,1,2,13,41,8,,,,,,,,,,,,,,,,,,,j,1,0.5741280829533935,,,,,,,,,,,,,,,,,,,,,,,,,,,,,,,,,,,,105,002,2021_Sep_29_1602,joplin1,2021.2.3,60.006030477342456,
_train_cond.csv,,,,,,,0,6,6,1,,,,,,,,,,,,,,,,,,,,,,,,,,space,3.156560750096105,,,,,,,,,,,,,,,,,,,,,,,,,,,,,,,,,,105,002,2021_Sep_29_1602,joplin1,2021.2.3,60.006030477342456,
_train_cond.csv,1 1 1 0 0 0 0 1 1 1,6,categoryA,f,,,0,7,7,0,0,0,0,3,,,,,,,,,,,,,,,,,,,f,1,1.1476742499507964,,,,,,,,,,,,,,,,,,,,,,,,,,,,,,,,,,,,105,002,2021_Sep_29_1602,joplin1,2021.2.3,60.006030477342456,
_train_cond.csv,1 1 0 0 0 0 0 0 1 1,4,categoryB,j,,,0,7,7,0,0,1,1,13,,,,,,,,,,,,,,,,,,,j,1,0.09144925000146031,,,,,,,,,,,,,,,,,,,,,,,,,,,,,,,,,,,,105,002,2021_Sep_29_1602,joplin1,2021.2.3,60.006030477342456,
_train_cond.csv,0 0 1 0 1 1 0 1 0 0,4,categoryB,j,,,0,7,7,0,0,2,2,9,,,,,,,,,,,,,,,,,,,j,1,0.6291179999243468,,,,,,,,,,,,,,,,,,,,,,,,,,,,,,,,,,,,105,002,2021_Sep_29_1602,joplin1,2021.2.3,60.006030477342456,
_train_cond.csv,1 0 0 0 0 0 0 0 0 1,2,categoryB,j,,,0,7,7,0,0,3,3,7,,,,,,,,,,,,,,,,,,,j,1,0.7783100421074778,,,,,,,,,,,,,,,,,,,,,,,,,,,,,,,,,,,,105,002,2021_Sep_29_1602,joplin1,2021.2.3,60.006030477342456,
_train_cond.csv,1 0 1 1 1 1 1 1 0 1,8,categoryA,f,,,0,7,7,0,0,4,4,1,,,,,,,,,,,,,,,,,,,f,1,0.4313369579613209,,,,,,,,,,,,,,,,,,,,,,,,,,,,,,,,,,,,105,002,2021_Sep_29_1602,joplin1,2021.2.3,60.006030477342456,
_train_cond.csv,0 1 0 0 0 0 0 0 1 0,2,categoryB,j,,,0,7,7,0,0,5,5,8,,,,,,,,,,,,,,,,,,,j,1,0.829738957923837,,,,,,,,,,,,,,,,,,,,,,,,,,,,,,,,,,,,105,002,2021_Sep_29_1602,joplin1,2021.2.3,60.006030477342456,
_train_cond.csv,0 1 1 1 1 1 1 1 1 0,8,categoryA,f,,,0,7,7,0,0,6,6,0,,,,,,,,,,,,,,,,,,,f,1,0.24980016704648733,,,,,,,,,,,,,,,,,,,,,,,,,,,,,,,,,,,,105,002,2021_Sep_29_1602,joplin1,2021.2.3,60.006030477342456,
_train_cond.csv,1 1 0 1 1 1 1 0 1 1,8,categoryA,f,,,0,7,7,0,0,7,7,5,,,,,,,,,,,,,,,,,,,f,1,0.6937882500933483,,,,,,,,,,,,,,,,,,,,,,,,,,,,,,,,,,,,105,002,2021_Sep_29_1602,joplin1,2021.2.3,60.006030477342456,
_train_cond.csv,1 1 1 0 1 1 0 1 1 1,8,categoryA,f,,,0,7,7,0,0,8,8,4,,,,,,,,,,,,,,,,,,,f,1,0.7678536250023171,,,,,,,,,,,,,,,,,,,,,,,,,,,,,,,,,,,,105,002,2021_Sep_29_1602,joplin1,2021.2.3,60.006030477342456,
_train_cond.csv,0 0 1 0 0 0 0 1 0 0,2,categoryB,j,,,0,7,7,0,0,9,9,12,,,,,,,,,,,,,,,,,,,j,1,0.42393708298914135,,,,,,,,,,,,,,,,,,,,,,,,,,,,,,,,,,,,105,002,2021_Sep_29_1602,joplin1,2021.2.3,60.006030477342456,
_train_cond.csv,0 0 0 1 1 1 1 0 0 0,4,categoryB,j,,,0,7,7,0,0,10,10,10,,,,,,,,,,,,,,,,,,,j,1,0.5308672919636592,,,,,,,,,,,,,,,,,,,,,,,,,,,,,,,,,,,,105,002,2021_Sep_29_1602,joplin1,2021.2.3,60.006030477342456,
_train_cond.csv,0 0 0 1 0 0 1 0 0 0,2,categoryB,j,,,0,7,7,0,0,11,11,11,,,,,,,,,,,,,,,,,,,j,1,0.7009459580294788,,,,,,,,,,,,,,,,,,,,,,,,,,,,,,,,,,,,105,002,2021_Sep_29_1602,joplin1,2021.2.3,60.006030477342456,
_train_cond.csv,0 0 1 1 1 1 1 1 0 0,6,categoryA,f,,,0,7,7,0,0,12,12,6,,,,,,,,,,,,,,,,,,,f,1,0.8469659169204533,,,,,,,,,,,,,,,,,,,,,,,,,,,,,,,,,,,,105,002,2021_Sep_29_1602,joplin1,2021.2.3,60.006030477342456,
_train_cond.csv,1 1 0 1 0 0 1 0 1 1,6,categoryA,f,,,0,7,7,0,0,13,13,2,,,,,,,,,,,,,,,,,,,f,1,0.5134369590086862,,,,,,,,,,,,,,,,,,,,,,,,,,,,,,,,,,,,105,002,2021_Sep_29_1602,joplin1,2021.2.3,60.006030477342456,
_train_cond.csv,0 0 1 1 1 1 1 1 0 0,6,categoryA,f,,,0,7,7,0,1,0,14,6,,,,,,,,,,,,,,,,,,,f,1,0.1473228329559788,,,,,,,,,,,,,,,,,,,,,,,,,,,,,,,,,,,,105,002,2021_Sep_29_1602,joplin1,2021.2.3,60.006030477342456,
_train_cond.csv,0 0 0 1 0 0 1 0 0 0,2,categoryB,j,,,0,7,7,0,1,1,15,11,,,,,,,,,,,,,,,,,,,j,1,0.812351041007787,,,,,,,,,,,,,,,,,,,,,,,,,,,,,,,,,,,,105,002,2021_Sep_29_1602,joplin1,2021.2.3,60.006030477342456,
_train_cond.csv,1 1 1 0 0 0 0 1 1 1,6,categoryA,f,,,0,7,7,0,1,2,16,3,,,,,,,,,,,,,,,,,,,f,1,1.1219082500319928,,,,,,,,,,,,,,,,,,,,,,,,,,,,,,,,,,,,105,002,2021_Sep_29_1602,joplin1,2021.2.3,60.006030477342456,
_train_cond.csv,1 1 0 1 0 0 1 0 1 1,6,categoryA,f,,,0,7,7,0,1,3,17,2,,,,,,,,,,,,,,,,,,,f,1,0.946870332933031,,,,,,,,,,,,,,,,,,,,,,,,,,,,,,,,,,,,105,002,2021_Sep_29_1602,joplin1,2021.2.3,60.006030477342456,
_train_cond.csv,1 1 0 0 0 0 0 0 1 1,4,categoryB,j,,,0,7,7,0,1,4,18,13,,,,,,,,,,,,,,,,,,,j,1,0.9777085420209914,,,,,,,,,,,,,,,,,,,,,,,,,,,,,,,,,,,,105,002,2021_Sep_29_1602,joplin1,2021.2.3,60.006030477342456,
_train_cond.csv,0 0 0 1 1 1 1 0 0 0,4,categoryB,j,,,0,7,7,0,1,5,19,10,,,,,,,,,,,,,,,,,,,f,0,0.7931739590130746,,,,,,,,,,,,,,,,,,,,,,,,,,,,,,,,,,,,105,002,2021_Sep_29_1602,joplin1,2021.2.3,60.006030477342456,
_train_cond.csv,0 1 0 0 0 0 0 0 1 0,2,categoryB,j,,,0,7,7,0,1,6,20,8,,,,,,,,,,,,,,,,,,,j,1,1.6318243750138208,,,,,,,,,,,,,,,,,,,,,,,,,,,,,,,,,,,,105,002,2021_Sep_29_1602,joplin1,2021.2.3,60.006030477342456,
_train_cond.csv,0 0 1 0 0 0 0 1 0 0,2,categoryB,j,,,0,7,7,0,1,7,21,12,,,,,,,,,,,,,,,,,,,j,1,1.139640292036347,,,,,,,,,,,,,,,,,,,,,,,,,,,,,,,,,,,,105,002,2021_Sep_29_1602,joplin1,2021.2.3,60.006030477342456,
_train_cond.csv,1 1 0 1 1 1 1 0 1 1,8,categoryA,f,,,0,7,7,0,1,8,22,5,,,,,,,,,,,,,,,,,,,f,1,0.8516744580119848,,,,,,,,,,,,,,,,,,,,,,,,,,,,,,,,,,,,105,002,2021_Sep_29_1602,joplin1,2021.2.3,60.006030477342456,
_train_cond.csv,0 0 1 0 1 1 0 1 0 0,4,categoryB,j,,,0,7,7,0,1,9,23,9,,,,,,,,,,,,,,,,,,,j,1,0.6645231250440702,,,,,,,,,,,,,,,,,,,,,,,,,,,,,,,,,,,,105,002,2021_Sep_29_1602,joplin1,2021.2.3,60.006030477342456,
_train_cond.csv,1 0 0 0 0 0 0 0 0 1,2,categoryB,j,,,0,7,7,0,1,10,24,7,,,,,,,,,,,,,,,,,,,j,1,0.2751465829787776,,,,,,,,,,,,,,,,,,,,,,,,,,,,,,,,,,,,105,002,2021_Sep_29_1602,joplin1,2021.2.3,60.006030477342456,
_train_cond.csv,1 0 1 1 1 1 1 1 0 1,8,categoryA,f,,,0,7,7,0,1,11,25,1,,,,,,,,,,,,,,,,,,,f,1,0.5417068750830367,,,,,,,,,,,,,,,,,,,,,,,,,,,,,,,,,,,,105,002,2021_Sep_29_1602,joplin1,2021.2.3,60.006030477342456,
_train_cond.csv,1 1 1 0 1 1 0 1 1 1,8,categoryA,f,,,0,7,7,0,1,12,26,4,,,,,,,,,,,,,,,,,,,f,1,0.5653538330225274,,,,,,,,,,,,,,,,,,,,,,,,,,,,,,,,,,,,105,002,2021_Sep_29_1602,joplin1,2021.2.3,60.006030477342456,
_train_cond.csv,0 1 1 1 1 1 1 1 1 0,8,categoryA,f,,,0,7,7,0,1,13,27,0,,,,,,,,,,,,,,,,,,,f,1,0.453953665914014,,,,,,,,,,,,,,,,,,,,,,,,,,,,,,,,,,,,105,002,2021_Sep_29_1602,joplin1,2021.2.3,60.006030477342456,
_train_cond.csv,1 0 0 0 0 0 0 0 0 1,2,categoryB,j,,,0,7,7,0,2,0,28,7,,,,,,,,,,,,,,,,,,,j,1,0.4896018330473453,,,,,,,,,,,,,,,,,,,,,,,,,,,,,,,,,,,,105,002,2021_Sep_29_1602,joplin1,2021.2.3,60.006030477342456,
_train_cond.csv,1 1 0 1 1 1 1 0 1 1,8,categoryA,f,,,0,7,7,0,2,1,29,5,,,,,,,,,,,,,,,,,,,f,1,0.7863800000632182,,,,,,,,,,,,,,,,,,,,,,,,,,,,,,,,,,,,105,002,2021_Sep_29_1602,joplin1,2021.2.3,60.006030477342456,
_train_cond.csv,0 1 1 1 1 1 1 1 1 0,8,categoryA,f,,,0,7,7,0,2,2,30,0,,,,,,,,,,,,,,,,,,,f,1,0.5132840409642085,,,,,,,,,,,,,,,,,,,,,,,,,,,,,,,,,,,,105,002,2021_Sep_29_1602,joplin1,2021.2.3,60.006030477342456,
_train_cond.csv,1 1 0 1 0 0 1 0 1 1,6,categoryA,f,,,0,7,7,0,2,3,31,2,,,,,,,,,,,,,,,,,,,f,1,0.7299383750651032,,,,,,,,,,,,,,,,,,,,,,,,,,,,,,,,,,,,105,002,2021_Sep_29_1602,joplin1,2021.2.3,60.006030477342456,
_train_cond.csv,0 0 0 1 1 1 1 0 0 0,4,categoryB,j,,,0,7,7,0,2,4,32,10,,,,,,,,,,,,,,,,,,,j,1,0.922614625073038,,,,,,,,,,,,,,,,,,,,,,,,,,,,,,,,,,,,105,002,2021_Sep_29_1602,joplin1,2021.2.3,60.006030477342456,
_train_cond.csv,0 0 1 0 0 0 0 1 0 0,2,categoryB,j,,,0,7,7,0,2,5,33,12,,,,,,,,,,,,,,,,,,,j,1,0.36284887499641627,,,,,,,,,,,,,,,,,,,,,,,,,,,,,,,,,,,,105,002,2021_Sep_29_1602,joplin1,2021.2.3,60.006030477342456,
_train_cond.csv,1 1 1 0 0 0 0 1 1 1,6,categoryA,f,,,0,7,7,0,2,6,34,3,,,,,,,,,,,,,,,,,,,f,1,0.4898810830200091,,,,,,,,,,,,,,,,,,,,,,,,,,,,,,,,,,,,105,002,2021_Sep_29_1602,joplin1,2021.2.3,60.006030477342456,
_train_cond.csv,1 1 1 0 1 1 0 1 1 1,8,categoryA,f,,,0,7,7,0,2,7,35,4,,,,,,,,,,,,,,,,,,,f,1,1.2930332910036668,,,,,,,,,,,,,,,,,,,,,,,,,,,,,,,,,,,,105,002,2021_Sep_29_1602,joplin1,2021.2.3,60.006030477342456,
_train_cond.csv,0 0 1 1 1 1 1 1 0 0,6,categoryA,f,,,0,7,7,0,2,8,36,6,,,,,,,,,,,,,,,,,,,f,1,1.1348739590030164,,,,,,,,,,,,,,,,,,,,,,,,,,,,,,,,,,,,105,002,2021_Sep_29_1602,joplin1,2021.2.3,60.006030477342456,
_train_cond.csv,0 0 0 1 0 0 1 0 0 0,2,categoryB,j,,,0,7,7,0,2,9,37,11,,,,,,,,,,,,,,,,,,,j,1,1.4396251660073176,,,,,,,,,,,,,,,,,,,,,,,,,,,,,,,,,,,,105,002,2021_Sep_29_1602,joplin1,2021.2.3,60.006030477342456,
_train_cond.csv,0 0 1 0 1 1 0 1 0 0,4,categoryB,j,,,0,7,7,0,2,10,38,9,,,,,,,,,,,,,,,,,,,j,1,0.5323448328999802,,,,,,,,,,,,,,,,,,,,,,,,,,,,,,,,,,,,105,002,2021_Sep_29_1602,joplin1,2021.2.3,60.006030477342456,
_train_cond.csv,1 1 0 0 0 0 0 0 1 1,4,categoryB,j,,,0,7,7,0,2,11,39,13,,,,,,,,,,,,,,,,,,,j,1,0.41344987496268004,,,,,,,,,,,,,,,,,,,,,,,,,,,,,,,,,,,,105,002,2021_Sep_29_1602,joplin1,2021.2.3,60.006030477342456,
_train_cond.csv,0 1 0 0 0 0 0 0 1 0,2,categoryB,j,,,0,7,7,0,2,12,40,8,,,,,,,,,,,,,,,,,,,j,1,1.979689917061478,,,,,,,,,,,,,,,,,,,,,,,,,,,,,,,,,,,,105,002,2021_Sep_29_1602,joplin1,2021.2.3,60.006030477342456,
_train_cond.csv,1 0 1 1 1 1 1 1 0 1,8,categoryA,f,,,0,7,7,0,2,13,41,1,,,,,,,,,,,,,,,,,,,f,1,0.858647583052516,,,,,,,,,,,,,,,,,,,,,,,,,,,,,,,,,,,,105,002,2021_Sep_29_1602,joplin1,2021.2.3,60.006030477342456,
_train_cond.csv,,,,,,,0,7,7,0,,,,,,,,,,,,,,,,,,,,,,,,,,space,32.37563237501308,,,,,,,,,,,,,,,,,,,,,,,,,,,,,,,,,,105,002,2021_Sep_29_1602,joplin1,2021.2.3,60.006030477342456,
,,,,,,,,,,,,,,,,,,,,,,,,,,,,,,,,,,,,,,q,21.7772641669726,,,,,,,,,,,,,,,,,,,,,,,,,,,,,,,,105,002,2021_Sep_29_1602,joplin1,2021.2.3,60.006030477342456,
,,,,,,,,,,,,,,,,,,,,,,,,,,,,,,,,,,,,,,,,j,6.4232164160348475,,,,,,,,,,,,,,,,,,,,,,,,,,,,,,105,002,2021_Sep_29_1602,joplin1,2021.2.3,60.006030477342456,
,,,,,,,,,,,,,,,,,,,,,,,,,,,,,,,,,,,,,,,,,,space,4.789292084053159,,,,,,,,,,,,,,,,,,,,,,,,,,,,105,002,2021_Sep_29_1602,joplin1,2021.2.3,60.006030477342456,
,,,,,,,,,,,,,,,,,,,,,,,,,,,,,,,,,,,,,,,,,,,,space,3.8771296669729054,,,,,,,,,,,,,,,,,,,,,,,,,,105,002,2021_Sep_29_1602,joplin1,2021.2.3,60.006030477342456,
,1 1 1 1 0 1 1 1 1 1,9,categoryA,f,genfile1.csv,0,,,,,,,,,0,0,0,0,0,0,0,19,,,,,,,,,,,,,,,,,,,,,,,,f,1,1.7434364159125835,,,,,,,,,,,,,,,,,,,,,,,105,002,2021_Sep_29_1602,joplin1,2021.2.3,60.006030477342456,
,0 0 0 1 0 0 1 0 0 0,2,categoryB,j,genfile1.csv,1,,,,,,,,,0,0,0,0,0,1,1,13,,,,,,,,,,,,,,,,,,,,,,,,j,1,1.2956268329871818,,,,,,,,,,,,,,,,,,,,,,,105,002,2021_Sep_29_1602,joplin1,2021.2.3,60.006030477342456,
,1 1 1 1 0 1 1 0 1 1,8,categoryA,f,genfile1.csv,0,,,,,,,,,0,0,0,0,0,2,2,22,,,,,,,,,,,,,,,,,,,,,,,,f,1,1.3854862080188468,,,,,,,,,,,,,,,,,,,,,,,105,002,2021_Sep_29_1602,joplin1,2021.2.3,60.006030477342456,
,0 1 0 0 0 0 1 1 0 0,3,categoryB,j,genfile1.csv,0,,,,,,,,,0,0,0,0,0,3,3,45,,,,,,,,,,,,,,,,,,,,,,,,j,1,1.6136327090207487,,,,,,,,,,,,,,,,,,,,,,,105,002,2021_Sep_29_1602,joplin1,2021.2.3,60.006030477342456,
,1 0 1 0 0 0 0 0 0 0,2,categoryB,j,genfile1.csv,0,,,,,,,,,0,0,0,0,0,4,4,47,,,,,,,,,,,,,,,,,,,,,,,,j,1,1.312439207918942,,,,,,,,,,,,,,,,,,,,,,,105,002,2021_Sep_29_1602,joplin1,2021.2.3,60.006030477342456,
,0 1 1 1 1 0 1 1 0 0,6,categoryA,f,genfile1.csv,0,,,,,,,,,0,0,0,0,0,5,5,35,,,,,,,,,,,,,,,,,,,,,,,,f,1,1.942507250001654,,,,,,,,,,,,,,,,,,,,,,,105,002,2021_Sep_29_1602,joplin1,2021.2.3,60.006030477342456,
,0 1 1 0 1 0 0 1 1 1,6,categoryA,f,genfile1.csv,0,,,,,,,,,0,0,0,0,0,6,6,31,,,,,,,,,,,,,,,,,,,,,,,,f,1,0.9301625000080094,,,,,,,,,,,,,,,,,,,,,,,105,002,2021_Sep_29_1602,joplin1,2021.2.3,60.006030477342456,
,1 1 1 1 1 1 1 1 1 1,10,categoryA,f,genfile1.csv,0,,,,,,,,,0,0,0,0,0,7,7,1,,,,,,,,,,,,,,,,,,,,,,,,j,0,1.04865691694431,,,,,,,,,,,,,,,,,,,,,,,105,002,2021_Sep_29_1602,joplin1,2021.2.3,60.006030477342456,
,1 0 1 0 0 1 0 0 0 1,4,categoryB,j,genfile1.csv,0,,,,,,,,,0,0,0,0,0,8,8,36,,,,,,,,,,,,,,,,,,,,,,,,f,0,0.42703083297237754,,,,,,,,,,,,,,,,,,,,,,,105,002,2021_Sep_29_1602,joplin1,2021.2.3,60.006030477342456,
,1 1 1 0 1 1 0 1 1 1,8,categoryA,f,genfile1.csv,1,,,,,,,,,0,0,0,0,0,9,9,6,,,,,,,,,,,,,,,,,,,,,,,,f,1,0.5837858750019222,,,,,,,,,,,,,,,,,,,,,,,105,002,2021_Sep_29_1602,joplin1,2021.2.3,60.006030477342456,
,1 1 1 1 1 0 0 1 0 0,6,categoryA,f,genfile1.csv,0,,,,,,,,,0,0,0,0,0,10,10,34,,,,,,,,,,,,,,,,,,,,,,,,f,1,0.8531470840098336,,,,,,,,,,,,,,,,,,,,,,,105,002,2021_Sep_29_1602,joplin1,2021.2.3,60.006030477342456,
,0 0 1 0 0 0 0 1 0 0,2,categoryB,j,genfile1.csv,1,,,,,,,,,0,0,0,0,0,11,11,14,,,,,,,,,,,,,,,,,,,,,,,,j,1,0.6554653330240399,,,,,,,,,,,,,,,,,,,,,,,105,002,2021_Sep_29_1602,joplin1,2021.2.3,60.006030477342456,
,1 1 0 0 0 0 0 0 1 1,4,categoryB,j,genfile1.csv,1,,,,,,,,,0,0,0,0,0,12,12,15,,,,,,,,,,,,,,,,,,,,,,,,j,1,0.6198264170670882,,,,,,,,,,,,,,,,,,,,,,,105,002,2021_Sep_29_1602,joplin1,2021.2.3,60.006030477342456,
,0 0 1 1 1 1 1 1 0 0,6,categoryA,f,genfile1.csv,1,,,,,,,,,0,0,0,0,0,13,13,8,,,,,,,,,,,,,,,,,,,,,,,,f,1,1.0565659160492942,,,,,,,,,,,,,,,,,,,,,,,105,002,2021_Sep_29_1602,joplin1,2021.2.3,60.006030477342456,
,0 0 0 1 1 1 1 0 0 0,4,categoryB,j,genfile1.csv,1,,,,,,,,,0,0,0,0,0,14,14,12,,,,,,,,,,,,,,,,,,,,,,,,j,1,0.6603526249527931,,,,,,,,,,,,,,,,,,,,,,,105,002,2021_Sep_29_1602,joplin1,2021.2.3,60.006030477342456,
,1 0 0 0 0 1 0 0 0 0,2,categoryB,j,genfile1.csv,0,,,,,,,,,0,0,0,0,0,15,15,49,,,,,,,,,,,,,,,,,,,,,,,,j,1,0.844319042051211,,,,,,,,,,,,,,,,,,,,,,,105,002,2021_Sep_29_1602,joplin1,2021.2.3,60.006030477342456,
,1 0 1 1 1 1 1 1 0 1,8,categoryA,f,genfile1.csv,1,,,,,,,,,0,0,0,0,0,16,16,3,,,,,,,,,,,,,,,,,,,,,,,,f,1,1.08072079194244,,,,,,,,,,,,,,,,,,,,,,,105,002,2021_Sep_29_1602,joplin1,2021.2.3,60.006030477342456,
,0 0 0 0 0 0 1 0 0 0,1,categoryB,j,genfile1.csv,0,,,,,,,,,0,0,0,0,0,17,17,54,,,,,,,,,,,,,,,,,,,,,,,,j,1,1.4778697079746053,,,,,,,,,,,,,,,,,,,,,,,105,002,2021_Sep_29_1602,joplin1,2021.2.3,60.006030477342456,
,1 1 0 1 0 0 1 0 1 1,6,categoryA,f,genfile1.csv,1,,,,,,,,,0,0,0,0,0,18,18,4,,,,,,,,,,,,,,,,,,,,,,,,f,1,0.9525176250608638,,,,,,,,,,,,,,,,,,,,,,,105,002,2021_Sep_29_1602,joplin1,2021.2.3,60.006030477342456,
,1 1 1 1 1 1 1 1 1 0,9,categoryA,f,genfile1.csv,0,,,,,,,,,0,0,0,0,0,19,19,20,,,,,,,,,,,,,,,,,,,,,,,,f,1,1.2057330419775099,,,,,,,,,,,,,,,,,,,,,,,105,002,2021_Sep_29_1602,joplin1,2021.2.3,60.006030477342456,
,1 0 0 0 0 0 0 0 0 0,1,categoryB,j,genfile1.csv,0,,,,,,,,,0,0,0,0,0,20,20,55,,,,,,,,,,,,,,,,,,,,,,,,j,1,0.8985250419937074,,,,,,,,,,,,,,,,,,,,,,,105,002,2021_Sep_29_1602,joplin1,2021.2.3,60.006030477342456,
,0 0 0 1 0 0 1 1 1 0,4,categoryB,j,genfile1.csv,0,,,,,,,,,0,0,0,0,0,21,21,39,,,,,,,,,,,,,,,,,,,,,,,,j,1,1.0314726660726592,,,,,,,,,,,,,,,,,,,,,,,105,002,2021_Sep_29_1602,joplin1,2021.2.3,60.006030477342456,
,1 1 0 1 1 1 1 1 1 1,9,categoryA,f,genfile1.csv,0,,,,,,,,,0,0,0,0,0,22,22,16,,,,,,,,,,,,,,,,,,,,,,,,f,1,0.4978862500283867,,,,,,,,,,,,,,,,,,,,,,,105,002,2021_Sep_29_1602,joplin1,2021.2.3,60.006030477342456,
,0 0 0 0 1 0 1 0 0 1,3,categoryB,j,genfile1.csv,0,,,,,,,,,0,0,0,0,0,23,23,42,,,,,,,,,,,,,,,,,,,,,,,,j,1,0.5313077089376748,,,,,,,,,,,,,,,,,,,,,,,105,002,2021_Sep_29_1602,joplin1,2021.2.3,60.006030477342456,
,1 1 0 0 1 0 1 1 0 1,6,categoryA,f,genfile1.csv,0,,,,,,,,,0,0,0,0,0,24,24,32,,,,,,,,,,,,,,,,,,,,,,,,j,0,0.3700647499645129,,,,,,,,,,,,,,,,,,,,,,,105,002,2021_Sep_29_1602,joplin1,2021.2.3,60.006030477342456,
,1 1 0 1 1 1 1 0 1 1,8,categoryA,f,genfile1.csv,1,,,,,,,,,0,0,0,0,0,25,25,7,,,,,,,,,,,,,,,,,,,,,,,,f,1,0.625039792037569,,,,,,,,,,,,,,,,,,,,,,,105,002,2021_Sep_29_1602,joplin1,2021.2.3,60.006030477342456,
,1 0 0 0 0 0 0 0 0 1,2,categoryB,j,genfile1.csv,1,,,,,,,,,0,0,0,0,0,26,26,9,,,,,,,,,,,,,,,,,,,,,,,,j,1,0.34967637504450977,,,,,,,,,,,,,,,,,,,,,,,105,002,2021_Sep_29_1602,joplin1,2021.2.3,60.006030477342456,
,0 0 1 1 0 0 1 0 0 0,3,categoryB,j,genfile1.csv,0,,,,,,,,,0,0,0,0,0,27,27,44,,,,,,,,,,,,,,,,,,,,,,,,f,0,0.4916127909673378,,,,,,,,,,,,,,,,,,,,,,,105,002,2021_Sep_29_1602,joplin1,2021.2.3,60.006030477342456,
,0 0 0 0 0 1 1 0 0 0,2,categoryB,j,genfile1.csv,0,,,,,,,,,0,0,0,0,0,28,28,48,,,,,,,,,,,,,,,,,,,,,,,,j,1,1.1231033329386264,,,,,,,,,,,,,,,,,,,,,,,105,002,2021_Sep_29_1602,joplin1,2021.2.3,60.006030477342456,
,0 1 1 1 1 1 1 1 1 0,8,categoryA,f,genfile1.csv,1,,,,,,,,,0,0,0,0,0,29,29,2,,,,,,,,,,,,,,,,,,,,,,,,f,1,0.6838697079801932,,,,,,,,,,,,,,,,,,,,,,,105,002,2021_Sep_29_1602,joplin1,2021.2.3,60.006030477342456,
,0 1 1 1 0 1 1 1 0 1,7,categoryA,f,genfile1.csv,0,,,,,,,,,0,0,0,0,0,30,30,29,,,,,,,,,,,,,,,,,,,,,,,,f,1,0.7635296250227839,,,,,,,,,,,,,,,,,,,,,,,105,002,2021_Sep_29_1602,joplin1,2021.2.3,60.006030477342456,
,0 0 0 0 0 1 0 0 0 1,2,categoryB,j,genfile1.csv,0,,,,,,,,,0,0,0,0,0,31,31,46,,,,,,,,,,,,,,,,,,,,,,,,j,1,0.5528488750569522,,,,,,,,,,,,,,,,,,,,,,,105,002,2021_Sep_29_1602,joplin1,2021.2.3,60.006030477342456,
,1 0 0 1 0 0 0 0 0 0,2,categoryB,j,genfile1.csv,0,,,,,,,,,0,0,0,0,0,32,32,50,,,,,,,,,,,,,,,,,,,,,,,,j,1,0.7820856249891222,,,,,,,,,,,,,,,,,,,,,,,105,002,2021_Sep_29_1602,joplin1,2021.2.3,60.006030477342456,
,1 1 1 1 1 1 0 1 1 1,9,categoryA,f,genfile1.csv,0,,,,,,,,,0,0,0,0,0,33,33,17,,,,,,,,,,,,,,,,,,,,,,,,f,1,1.2254336249316111,,,,,,,,,,,,,,,,,,,,,,,105,002,2021_Sep_29_1602,joplin1,2021.2.3,60.006030477342456,
,0 0 0 0 0 0 0 0 0 0,0,categoryB,j,genfile1.csv,0,,,,,,,,,0,0,0,0,0,34,34,0,,,,,,,,,,,,,,,,,,,,,,,,j,1,0.8296089579816908,,,,,,,,,,,,,,,,,,,,,,,105,002,2021_Sep_29_1602,joplin1,2021.2.3,60.006030477342456,
,0 1 0 0 0 0 0 0 1 0,2,categoryB,j,genfile1.csv,1,,,,,,,,,0,0,0,0,0,35,35,10,,,,,,,,,,,,,,,,,,,,,,,,j,1,0.8498489999910817,,,,,,,,,,,,,,,,,,,,,,,105,002,2021_Sep_29_1602,joplin1,2021.2.3,60.006030477342456,
,0 1 1 0 1 1 1 1 1 1,8,categoryA,f,genfile1.csv,0,,,,,,,,,0,0,0,0,0,36,36,23,,,,,,,,,,,,,,,,,,,,,,,,j,0,1.9004355419892818,,,,,,,,,,,,,,,,,,,,,,,105,002,2021_Sep_29_1602,joplin1,2021.2.3,60.006030477342456,
,0 1 0 0 0 1 0 1 1 0,4,categoryB,j,genfile1.csv,0,,,,,,,,,0,0,0,0,0,37,37,40,,,,,,,,,,,,,,,,,,,,,,,,j,1,0.6988660410279408,,,,,,,,,,,,,,,,,,,,,,,105,002,2021_Sep_29_1602,joplin1,2021.2.3,60.006030477342456,
,1 0 0 1 1 1 1 1 0 1,7,categoryA,f,genfile1.csv,0,,,,,,,,,0,0,0,0,0,38,38,30,,,,,,,,,,,,,,,,,,,,,,,,f,1,1.3951010419987142,,,,,,,,,,,,,,,,,,,,,,,105,002,2021_Sep_29_1602,joplin1,2021.2.3,60.006030477342456,
,0 0 0 0 0 1 1 0 0 1,3,categoryB,j,genfile1.csv,0,,,,,,,,,0,0,0,0,0,39,39,43,,,,,,,,,,,,,,,,,,,,,,,,j,1,0.8889244999736547,,,,,,,,,,,,,,,,,,,,,,,105,002,2021_Sep_29_1602,joplin1,2021.2.3,60.006030477342456,
,0 0 0 0 1 0 0 0 0 0,1,categoryB,j,genfile1.csv,0,,,,,,,,,0,0,0,0,0,40,40,52,,,,,,,,,,,,,,,,,,,,,,,,j,1,0.5521389170316979,,,,,,,,,,,,,,,,,,,,,,,105,002,2021_Sep_29_1602,joplin1,2021.2.3,60.006030477342456,
,0 0 0 1 0 0 0 0 0 0,1,categoryB,j,genfile1.csv,0,,,,,,,,,0,0,0,0,0,41,41,51,,,,,,,,,,,,,,,,,,,,,,,,j,1,0.40580845798831433,,,,,,,,,,,,,,,,,,,,,,,105,002,2021_Sep_29_1602,joplin1,2021.2.3,60.006030477342456,
,1 1 0 1 0 0 0 0 0 0,3,categoryB,j,genfile1.csv,0,,,,,,,,,0,0,0,0,0,42,42,41,,,,,,,,,,,,,,,,,,,,,,,,f,0,0.9046168749919161,,,,,,,,,,,,,,,,,,,,,,,105,002,2021_Sep_29_1602,joplin1,2021.2.3,60.006030477342456,
,0 0 1 1 1 0 0 0 0 1,4,categoryB,j,genfile1.csv,0,,,,,,,,,0,0,0,0,0,43,43,38,,,,,,,,,,,,,,,,,,,,,,,,f,0,1.2397790419636294,,,,,,,,,,,,,,,,,,,,,,,105,002,2021_Sep_29_1602,joplin1,2021.2.3,60.006030477342456,
,0 0 0 0 0 0 0 0 1 0,1,categoryB,j,genfile1.csv,0,,,,,,,,,0,0,0,0,0,44,44,53,,,,,,,,,,,,,,,,,,,,,,,,j,1,0.7378300419077277,,,,,,,,,,,,,,,,,,,,,,,105,002,2021_Sep_29_1602,joplin1,2021.2.3,60.006030477342456,
,1 1 1 1 1 1 1 1 0 0,8,categoryA,f,genfile1.csv,0,,,,,,,,,0,0,0,0,0,45,45,25,,,,,,,,,,,,,,,,,,,,,,,,f,1,1.361100957961753,,,,,,,,,,,,,,,,,,,,,,,105,002,2021_Sep_29_1602,joplin1,2021.2.3,60.006030477342456,
,1 1 1 0 0 0 0 1 1 1,6,categoryA,f,genfile1.csv,1,,,,,,,,,0,0,0,0,0,46,46,5,,,,,,,,,,,,,,,,,,,,,,,,f,1,0.8397398750530556,,,,,,,,,,,,,,,,,,,,,,,105,002,2021_Sep_29_1602,joplin1,2021.2.3,60.006030477342456,
,1 1 0 1 1 1 0 1 1 1,8,categoryA,f,genfile1.csv,0,,,,,,,,,0,0,0,0,0,47,47,21,,,,,,,,,,,,,,,,,,,,,,,,f,1,0.9445915829855949,,,,,,,,,,,,,,,,,,,,,,,105,002,2021_Sep_29_1602,joplin1,2021.2.3,60.006030477342456,
,1 1 1 0 0 0 1 1 1 1,7,categoryA,f,genfile1.csv,0,,,,,,,,,0,0,0,0,0,48,48,26,,,,,,,,,,,,,,,,,,,,,,,,f,1,0.933378791087307,,,,,,,,,,,,,,,,,,,,,,,105,002,2021_Sep_29_1602,joplin1,2021.2.3,60.006030477342456,
,0 1 1 0 1 1 1 1 0 1,7,categoryA,f,genfile1.csv,0,,,,,,,,,0,0,0,0,0,49,49,27,,,,,,,,,,,,,,,,,,,,,,,,j,0,0.8119725419674069,,,,,,,,,,,,,,,,,,,,,,,105,002,2021_Sep_29_1602,joplin1,2021.2.3,60.006030477342456,
,1 0 1 1 1 1 1 1 1 1,9,categoryA,f,genfile1.csv,0,,,,,,,,,0,0,0,0,0,50,50,18,,,,,,,,,,,,,,,,,,,,,,,,f,1,1.2571059999754652,,,,,,,,,,,,,,,,,,,,,,,105,002,2021_Sep_29_1602,joplin1,2021.2.3,60.006030477342456,
,1 1 0 1 0 0 1 1 1 1,7,categoryA,f,genfile1.csv,0,,,,,,,,,0,0,0,0,0,51,51,28,,,,,,,,,,,,,,,,,,,,,,,,f,1,0.39357616601046175,,,,,,,,,,,,,,,,,,,,,,,105,002,2021_Sep_29_1602,joplin1,2021.2.3,60.006030477342456,
,0 0 1 0 1 1 0 1 0 0,4,categoryB,j,genfile1.csv,1,,,,,,,,,0,0,0,0,0,52,52,11,,,,,,,,,,,,,,,,,,,,,,,,j,1,0.8950949590653181,,,,,,,,,,,,,,,,,,,,,,,105,002,2021_Sep_29_1602,joplin1,2021.2.3,60.006030477342456,
,1 0 1 0 0 1 1 0 1 1,6,categoryA,f,genfile1.csv,0,,,,,,,,,0,0,0,0,0,53,53,33,,,,,,,,,,,,,,,,,,,,,,,,f,1,0.9672275419579819,,,,,,,,,,,,,,,,,,,,,,,105,002,2021_Sep_29_1602,joplin1,2021.2.3,60.006030477342456,
,0 0 1 0 0 0 1 0 1 1,4,categoryB,j,genfile1.csv,0,,,,,,,,,0,0,0,0,0,54,54,37,,,,,,,,,,,,,,,,,,,,,,,,j,1,1.010935541940853,,,,,,,,,,,,,,,,,,,,,,,105,002,2021_Sep_29_1602,joplin1,2021.2.3,60.006030477342456,
,0 0 1 1 1 1 1 1 1 1,8,categoryA,f,genfile1.csv,0,,,,,,,,,0,0,0,0,0,55,55,24,,,,,,,,,,,,,,,,,,,,,,,,f,1,0.09983899991493672,,,,,,,,,,,,,,,,,,,,,,,105,002,2021_Sep_29_1602,joplin1,2021.2.3,60.006030477342456,
,,,,,genfile1.csv,,,,,,,,,,0,0,0,0,,,,,,,,,,,,,,,,,,space,7.2865587080596015,,,,,,,,,,,,,,,,,,,,,,,,,,,,,,,,,,105,002,2021_Sep_29_1602,joplin1,2021.2.3,60.006030477342456,
,0 0 0 0 0 0 1 1 0 0,2,categoryB,j,genfile2.csv,0,,,,,,,,,0,1,1,1,0,0,0,46,,,,,,,,,,,,,,,,,,,,,,,,j,1,0.8443960000295192,,,,,,,,,,,,,,,,,,,,,,,105,002,2021_Sep_29_1602,joplin1,2021.2.3,60.006030477342456,
,0 0 1 1 0 0 0 1 1 0,4,categoryB,j,genfile2.csv,0,,,,,,,,,0,1,1,1,0,1,1,38,,,,,,,,,,,,,,,,,,,,,,,,f,0,0.8216285000089556,,,,,,,,,,,,,,,,,,,,,,,105,002,2021_Sep_29_1602,joplin1,2021.2.3,60.006030477342456,
,1 1 1 0 1 1 0 0 1 1,7,categoryA,f,genfile2.csv,0,,,,,,,,,0,1,1,1,0,2,2,26,,,,,,,,,,,,,,,,,,,,,,,,f,1,0.7118832499254495,,,,,,,,,,,,,,,,,,,,,,,105,002,2021_Sep_29_1602,joplin1,2021.2.3,60.006030477342456,
,1 0 1 1 1 0 1 1 1 1,8,categoryA,f,genfile2.csv,0,,,,,,,,,0,1,1,1,0,3,3,22,,,,,,,,,,,,,,,,,,,,,,,,f,1,1.7004374170210212,,,,,,,,,,,,,,,,,,,,,,,105,002,2021_Sep_29_1602,joplin1,2021.2.3,60.006030477342456,
,0 0 1 0 1 0 0 0 0 0,2,categoryB,j,genfile2.csv,0,,,,,,,,,0,1,1,1,0,4,4,48,,,,,,,,,,,,,,,,,,,,,,,,j,1,1.5644193750340492,,,,,,,,,,,,,,,,,,,,,,,105,002,2021_Sep_29_1602,joplin1,2021.2.3,60.006030477342456,
,0 0 0 1 1 1 1 0 0 0,4,categoryB,j,genfile2.csv,1,,,,,,,,,0,1,1,1,0,5,5,12,,,,,,,,,,,,,,,,,,,,,,,,j,1,0.5549767500488088,,,,,,,,,,,,,,,,,,,,,,,105,002,2021_Sep_29_1602,joplin1,2021.2.3,60.006030477342456,
,1 1 1 0 1 1 0 1 1 1,8,categoryA,f,genfile2.csv,1,,,,,,,,,0,1,1,1,0,6,6,6,,,,,,,,,,,,,,,,,,,,,,,,f,1,1.3784878749866039,,,,,,,,,,,,,,,,,,,,,,,105,002,2021_Sep_29_1602,joplin1,2021.2.3,60.006030477342456,
,1 1 0 0 0 0 0 0 1 1,4,categoryB,j,genfile2.csv,1,,,,,,,,,0,1,1,1,0,7,7,15,,,,,,,,,,,,,,,,,,,,,,,,j,1,0.8027173749869689,,,,,,,,,,,,,,,,,,,,,,,105,002,2021_Sep_29_1602,joplin1,2021.2.3,60.006030477342456,
,0 1 0 0 0 0 0 0 1 0,2,categoryB,j,genfile2.csv,1,,,,,,,,,0,1,1,1,0,8,8,10,,,,,,,,,,,,,,,,,,,,,,,,j,1,0.1434230419108644,,,,,,,,,,,,,,,,,,,,,,,105,002,2021_Sep_29_1602,joplin1,2021.2.3,60.006030477342456,
,0 0 1 1 1 1 1 1 0 1,7,categoryA,f,genfile2.csv,0,,,,,,,,,0,1,1,1,0,9,9,29,,,,,,,,,,,,,,,,,,,,,,,,f,1,0.42998362495563924,,,,,,,,,,,,,,,,,,,,,,,105,002,2021_Sep_29_1602,joplin1,2021.2.3,60.006030477342456,
,0 1 1 1 1 0 1 1 1 1,8,categoryA,f,genfile2.csv,0,,,,,,,,,0,1,1,1,0,10,10,23,,,,,,,,,,,,,,,,,,,,,,,,f,1,0.4801390829961747,,,,,,,,,,,,,,,,,,,,,,,105,002,2021_Sep_29_1602,joplin1,2021.2.3,60.006030477342456,
,1 0 0 0 0 0 0 0 0 1,2,categoryB,j,genfile2.csv,1,,,,,,,,,0,1,1,1,0,11,11,9,,,,,,,,,,,,,,,,,,,,,,,,j,1,0.60345504200086,,,,,,,,,,,,,,,,,,,,,,,105,002,2021_Sep_29_1602,joplin1,2021.2.3,60.006030477342456,
,0 0 0 0 0 0 0 1 0 0,1,categoryB,j,genfile2.csv,0,,,,,,,,,0,1,1,1,0,12,12,55,,,,,,,,,,,,,,,,,,,,,,,,j,1,0.35087429103441536,,,,,,,,,,,,,,,,,,,,,,,105,002,2021_Sep_29_1602,joplin1,2021.2.3,60.006030477342456,
,1 1 1 0 1 0 1 1 0 1,7,categoryA,f,genfile2.csv,0,,,,,,,,,0,1,1,1,0,13,13,27,,,,,,,,,,,,,,,,,,,,,,,,f,1,0.5805982080055401,,,,,,,,,,,,,,,,,,,,,,,105,002,2021_Sep_29_1602,joplin1,2021.2.3,60.006030477342456,
,1 0 0 0 0 0 1 0 1 0,3,categoryB,j,genfile2.csv,0,,,,,,,,,0,1,1,1,0,14,14,45,,,,,,,,,,,,,,,,,,,,,,,,j,1,0.17711270798463374,,,,,,,,,,,,,,,,,,,,,,,105,002,2021_Sep_29_1602,joplin1,2021.2.3,60.006030477342456,
,0 0 1 0 0 0 0 1 0 0,2,categoryB,j,genfile2.csv,1,,,,,,,,,0,1,1,1,0,15,15,14,,,,,,,,,,,,,,,,,,,,,,,,j,1,1.0641245839651674,,,,,,,,,,,,,,,,,,,,,,,105,002,2021_Sep_29_1602,joplin1,2021.2.3,60.006030477342456,
,0 0 0 0 0 0 1 0 1 1,3,categoryB,j,genfile2.csv,0,,,,,,,,,0,1,1,1,0,16,16,43,,,,,,,,,,,,,,,,,,,,,,,,j,1,0.07388379098847508,,,,,,,,,,,,,,,,,,,,,,,105,002,2021_Sep_29_1602,joplin1,2021.2.3,60.006030477342456,
,0 1 1 1 1 1 1 1 1 0,8,categoryA,f,genfile2.csv,1,,,,,,,,,0,1,1,1,0,17,17,2,,,,,,,,,,,,,,,,,,,,,,,,f,1,0.0037826249608770013,,,,,,,,,,,,,,,,,,,,,,,105,002,2021_Sep_29_1602,joplin1,2021.2.3,60.006030477342456,
,1 1 0 0 1 0 1 1 1 0,6,categoryA,f,genfile2.csv,0,,,,,,,,,0,1,1,1,0,18,18,34,,,,,,,,,,,,,,,,,,,,,,,,j,0,0.21497537510003895,,,,,,,,,,,,,,,,,,,,,,,105,002,2021_Sep_29_1602,joplin1,2021.2.3,60.006030477342456,
,0 0 1 1 1 1 1 1 0 0,6,categoryA,f,genfile2.csv,1,,,,,,,,,0,1,1,1,0,19,19,8,,,,,,,,,,,,,,,,,,,,,,,,f,1,0.7327741669723764,,,,,,,,,,,,,,,,,,,,,,,105,002,2021_Sep_29_1602,joplin1,2021.2.3,60.006030477342456,
,1 1 1 1 1 0 1 1 1 1,9,categoryA,f,genfile2.csv,0,,,,,,,,,0,1,1,1,0,20,20,18,,,,,,,,,,,,,,,,,,,,,,,,f,1,0.531346750096418,,,,,,,,,,,,,,,,,,,,,,,105,002,2021_Sep_29_1602,joplin1,2021.2.3,60.006030477342456,
,0 0 0 0 0 0 0 0 0 1,1,categoryB,j,genfile2.csv,0,,,,,,,,,0,1,1,1,0,21,21,51,,,,,,,,,,,,,,,,,,,,,,,,j,1,0.9208058340009302,,,,,,,,,,,,,,,,,,,,,,,105,002,2021_Sep_29_1602,joplin1,2021.2.3,60.006030477342456,
,0 1 1 0 0 0 0 1 0 0,3,categoryB,j,genfile2.csv,0,,,,,,,,,0,1,1,1,0,22,22,44,,,,,,,,,,,,,,,,,,,,,,,,j,1,0.21451616694685072,,,,,,,,,,,,,,,,,,,,,,,105,002,2021_Sep_29_1602,joplin1,2021.2.3,60.006030477342456,
,0 0 0 0 0 0 0 0 0 0,0,categoryB,j,genfile2.csv,0,,,,,,,,,0,1,1,1,0,23,23,0,,,,,,,,,,,,,,,,,,,,,,,,j,1,0.6841917920392007,,,,,,,,,,,,,,,,,,,,,,,105,002,2021_Sep_29_1602,joplin1,2021.2.3,60.006030477342456,
,0 0 1 0 1 1 0 1 0 0,4,categoryB,j,genfile2.csv,1,,,,,,,,,0,1,1,1,0,24,24,11,,,,,,,,,,,,,,,,,,,,,,,,j,1,0.9345378750003874,,,,,,,,,,,,,,,,,,,,,,,105,002,2021_Sep_29_1602,joplin1,2021.2.3,60.006030477342456,
,1 1 0 1 1 1 1 0 1 1,8,categoryA,f,genfile2.csv,1,,,,,,,,,0,1,1,1,0,25,25,7,,,,,,,,,,,,,,,,,,,,,,,,f,1,0.4229416250018403,,,,,,,,,,,,,,,,,,,,,,,105,002,2021_Sep_29_1602,joplin1,2021.2.3,60.006030477342456,
,0 1 0 0 1 1 0 0 0 1,4,categoryB,j,genfile2.csv,0,,,,,,,,,0,1,1,1,0,26,26,36,,,,,,,,,,,,,,,,,,,,,,,,j,1,0.4484465839341283,,,,,,,,,,,,,,,,,,,,,,,105,002,2021_Sep_29_1602,joplin1,2021.2.3,60.006030477342456,
,0 0 0 1 0 0 1 0 0 0,2,categoryB,j,genfile2.csv,1,,,,,,,,,0,1,1,1,0,27,27,13,,,,,,,,,,,,,,,,,,,,,,,,j,1,0.5086097919847816,,,,,,,,,,,,,,,,,,,,,,,105,002,2021_Sep_29_1602,joplin1,2021.2.3,60.006030477342456,
,0 1 0 1 0 0 0 0 0 0,2,categoryB,j,genfile2.csv,0,,,,,,,,,0,1,1,1,0,28,28,47,,,,,,,,,,,,,,,,,,,,,,,,j,1,0.9372855410911143,,,,,,,,,,,,,,,,,,,,,,,105,002,2021_Sep_29_1602,joplin1,2021.2.3,60.006030477342456,
,0 1 0 0 0 1 1 1 0 0,4,categoryB,j,genfile2.csv,0,,,,,,,,,0,1,1,1,0,29,29,40,,,,,,,,,,,,,,,,,,,,,,,,j,1,0.7831224160036072,,,,,,,,,,,,,,,,,,,,,,,105,002,2021_Sep_29_1602,joplin1,2021.2.3,60.006030477342456,
,1 1 1 1 1 1 1 1 0 1,9,categoryA,f,genfile2.csv,0,,,,,,,,,0,1,1,1,0,30,30,17,,,,,,,,,,,,,,,,,,,,,,,,f,1,0.708471457939595,,,,,,,,,,,,,,,,,,,,,,,105,002,2021_Sep_29_1602,joplin1,2021.2.3,60.006030477342456,
,0 0 0 1 1 0 1 1 1 1,6,categoryA,f,genfile2.csv,0,,,,,,,,,0,1,1,1,0,31,31,31,,,,,,,,,,,,,,,,,,,,,,,,j,0,0.3490529169794172,,,,,,,,,,,,,,,,,,,,,,,105,002,2021_Sep_29_1602,joplin1,2021.2.3,60.006030477342456,
,1 1 1 1 1 1 1 1 1 1,10,categoryA,f,genfile2.csv,0,,,,,,,,,0,1,1,1,0,32,32,1,,,,,,,,,,,,,,,,,,,,,,,,f,1,0.35661062505096197,,,,,,,,,,,,,,,,,,,,,,,105,002,2021_Sep_29_1602,joplin1,2021.2.3,60.006030477342456,
,1 1 1 1 0 0 1 1 1 1,8,categoryA,f,genfile2.csv,0,,,,,,,,,0,1,1,1,0,33,33,21,,,,,,,,,,,,,,,,,,,,,,,,f,1,0.44959700002800673,,,,,,,,,,,,,,,,,,,,,,,105,002,2021_Sep_29_1602,joplin1,2021.2.3,60.006030477342456,
,0 0 0 0 0 1 0 0 0 0,1,categoryB,j,genfile2.csv,0,,,,,,,,,0,1,1,1,0,34,34,53,,,,,,,,,,,,,,,,,,,,,,,,j,1,0.0048447499284520745,,,,,,,,,,,,,,,,,,,,,,,105,002,2021_Sep_29_1602,joplin1,2021.2.3,60.006030477342456,
,1 1 0 1 0 0 1 0 1 1,6,categoryA,f,genfile2.csv,1,,,,,,,,,0,1,1,1,0,35,35,4,,,,,,,,,,,,,,,,,,,,,,,,f,1,0.3135642090346664,,,,,,,,,,,,,,,,,,,,,,,105,002,2021_Sep_29_1602,joplin1,2021.2.3,60.006030477342456,
,0 1 0 0 1 1 0 0 0 0,3,categoryB,j,genfile2.csv,0,,,,,,,,,0,1,1,1,0,36,36,42,,,,,,,,,,,,,,,,,,,,,,,,j,1,0.5934205000521615,,,,,,,,,,,,,,,,,,,,,,,105,002,2021_Sep_29_1602,joplin1,2021.2.3,60.006030477342456,
,1 0 1 0 0 0 1 1 1 1,6,categoryA,f,genfile2.csv,0,,,,,,,,,0,1,1,1,0,37,37,35,,,,,,,,,,,,,,,,,,,,,,,,f,1,1.0062538749771193,,,,,,,,,,,,,,,,,,,,,,,105,002,2021_Sep_29_1602,joplin1,2021.2.3,60.006030477342456,
,1 1 1 0 0 1 0 1 1 0,6,categoryA,f,genfile2.csv,0,,,,,,,,,0,1,1,1,0,38,38,33,,,,,,,,,,,,,,,,,,,,,,,,f,1,1.0007679580012336,,,,,,,,,,,,,,,,,,,,,,,105,002,2021_Sep_29_1602,joplin1,2021.2.3,60.006030477342456,
,1 1 1 0 1 1 1 1 1 1,9,categoryA,f,genfile2.csv,0,,,,,,,,,0,1,1,1,0,39,39,16,,,,,,,,,,,,,,,,,,,,,,,,f,1,0.17378887499216944,,,,,,,,,,,,,,,,,,,,,,,105,002,2021_Sep_29_1602,joplin1,2021.2.3,60.006030477342456,
,0 1 0 0 0 0 0 0 0 0,1,categoryB,j,genfile2.csv,0,,,,,,,,,0,1,1,1,0,40,40,54,,,,,,,,,,,,,,,,,,,,,,,,j,1,0.5799743749666959,,,,,,,,,,,,,,,,,,,,,,,105,002,2021_Sep_29_1602,joplin1,2021.2.3,60.006030477342456,
,0 0 1 0 0 0 0 0 0 0,1,categoryB,j,genfile2.csv,0,,,,,,,,,0,1,1,1,0,41,41,52,,,,,,,,,,,,,,,,,,,,,,,,j,1,0.7525015000719577,,,,,,,,,,,,,,,,,,,,,,,105,002,2021_Sep_29_1602,joplin1,2021.2.3,60.006030477342456,
,0 0 1 1 0 1 1 0 0 0,4,categoryB,j,genfile2.csv,0,,,,,,,,,0,1,1,1,0,42,42,37,,,,,,,,,,,,,,,,,,,,,,,,f,0,0.12595433392561972,,,,,,,,,,,,,,,,,,,,,,,105,002,2021_Sep_29_1602,joplin1,2021.2.3,60.006030477342456,
,0 0 1 0 0 0 0 1 0 1,3,categoryB,j,genfile2.csv,0,,,,,,,,,0,1,1,1,0,43,43,41,,,,,,,,,,,,,,,,,,,,,,,,j,1,0.17227379092946649,,,,,,,,,,,,,,,,,,,,,,,105,002,2021_Sep_29_1602,joplin1,2021.2.3,60.006030477342456,
,1 1 1 1 0 0 0 1 1 1,7,categoryA,f,genfile2.csv,0,,,,,,,,,0,1,1,1,0,44,44,30,,,,,,,,,,,,,,,,,,,,,,,,f,1,0.9858324580127373,,,,,,,,,,,,,,,,,,,,,,,105,002,2021_Sep_29_1602,joplin1,2021.2.3,60.006030477342456,
,0 0 0 0 1 0 0 1 0 0,2,categoryB,j,genfile2.csv,0,,,,,,,,,0,1,1,1,0,45,45,50,,,,,,,,,,,,,,,,,,,,,,,,j,1,0.2618490409804508,,,,,,,,,,,,,,,,,,,,,,,105,002,2021_Sep_29_1602,joplin1,2021.2.3,60.006030477342456,
,1 0 1 1 1 1 1 1 0 1,8,categoryA,f,genfile2.csv,1,,,,,,,,,0,1,1,1,0,46,46,3,,,,,,,,,,,,,,,,,,,,,,,,f,1,0.0030959589639678597,,,,,,,,,,,,,,,,,,,,,,,105,002,2021_Sep_29_1602,joplin1,2021.2.3,60.006030477342456,
,0 1 1 0 0 1 0 1 0 0,4,categoryB,j,genfile2.csv,0,,,,,,,,,0,1,1,1,0,47,47,39,,,,,,,,,,,,,,,,,,,,,,,,j,1,0.3900984999490902,,,,,,,,,,,,,,,,,,,,,,,105,002,2021_Sep_29_1602,joplin1,2021.2.3,60.006030477342456,
,1 1 1 0 1 1 0 0 1 0,6,categoryA,f,genfile2.csv,0,,,,,,,,,0,1,1,1,0,48,48,32,,,,,,,,,,,,,,,,,,,,,,,,f,1,0.5231475420296192,,,,,,,,,,,,,,,,,,,,,,,105,002,2021_Sep_29_1602,joplin1,2021.2.3,60.006030477342456,
,1 0 1 1 1 1 0 1 1 1,8,categoryA,f,genfile2.csv,0,,,,,,,,,0,1,1,1,0,49,49,25,,,,,,,,,,,,,,,,,,,,,,,,f,1,0.7768573330249637,,,,,,,,,,,,,,,,,,,,,,,105,002,2021_Sep_29_1602,joplin1,2021.2.3,60.006030477342456,
,1 1 1 0 0 0 0 1 1 1,6,categoryA,f,genfile2.csv,1,,,,,,,,,0,1,1,1,0,50,50,5,,,,,,,,,,,,,,,,,,,,,,,,f,1,1.150583874899894,,,,,,,,,,,,,,,,,,,,,,,105,002,2021_Sep_29_1602,joplin1,2021.2.3,60.006030477342456,
,1 1 1 1 1 1 1 0 1 1,9,categoryA,f,genfile2.csv,0,,,,,,,,,0,1,1,1,0,51,51,20,,,,,,,,,,,,,,,,,,,,,,,,f,1,0.6925485408864915,,,,,,,,,,,,,,,,,,,,,,,105,002,2021_Sep_29_1602,joplin1,2021.2.3,60.006030477342456,
,1 1 1 1 0 1 0 1 1 1,8,categoryA,f,genfile2.csv,0,,,,,,,,,0,1,1,1,0,52,52,24,,,,,,,,,,,,,,,,,,,,,,,,f,1,0.6224247919162735,,,,,,,,,,,,,,,,,,,,,,,105,002,2021_Sep_29_1602,joplin1,2021.2.3,60.006030477342456,
,0 0 1 0 0 1 0 0 0 0,2,categoryB,j,genfile2.csv,0,,,,,,,,,0,1,1,1,0,53,53,49,,,,,,,,,,,,,,,,,,,,,,,,j,1,0.27960616699419916,,,,,,,,,,,,,,,,,,,,,,,105,002,2021_Sep_29_1602,joplin1,2021.2.3,60.006030477342456,
,0 1 1 1 1 1 1 1 1 1,9,categoryA,f,genfile2.csv,0,,,,,,,,,0,1,1,1,0,54,54,19,,,,,,,,,,,,,,,,,,,,,,,,f,1,1.425588040961884,,,,,,,,,,,,,,,,,,,,,,,105,002,2021_Sep_29_1602,joplin1,2021.2.3,60.006030477342456,
,0 1 1 1 1 0 1 0 1 1,7,categoryA,f,genfile2.csv,0,,,,,,,,,0,1,1,1,0,55,55,28,,,,,,,,,,,,,,,,,,,,,,,,f,1,1.6985102919861674,,,,,,,,,,,,,,,,,,,,,,,105,002,2021_Sep_29_1602,joplin1,2021.2.3,60.006030477342456,
,,,,,genfile2.csv,,,,,,,,,,0,1,1,1,,,,,,,,,,,,,,,,,,space,6.989845125004649,,,,,,,,,,,,,,,,,,,,,,,,,,,,,,,,,,105,002,2021_Sep_29_1602,joplin1,2021.2.3,60.006030477342456,
,,,,,,,,,,,,,,,,,,,,,,,,,,,,,,,,,,,,,,,,,,,,,,,,,space,7.390378667041659,,,,,,,,,,,,,,,,,,,,,105,002,2021_Sep_29_1602,joplin1,2021.2.3,60.006030477342456,
,,,,,,,,,,,,,,,,,,,,,,,,,,,,,,,,,,,,,,,,,,,,,,,,,,,return,22.41325654205866,,,,,,,,,,,,,,,,,,,105,002,2021_Sep_29_1602,joplin1,2021.2.3,60.006030477342456,
,,,,,,,,,,,,,,,,,,,,,,,,,,,,,,,,,,,,,,,,,,,,,,,,,,,,,0.7,radio,0.3,Are you Hispanic/Latino?,0,None,None,no,6.2554965420858935,,,,,,,,,,105,002,2021_Sep_29_1602,joplin1,2021.2.3,60.006030477342456,
,,,,,,,,,,,,,,,,,,,,,,,,,,,,,,,,,,,,,,,,,,,,,,,,,,,,,0.7,radio,0.3,Are you an American Indian or Alaska Native?,1,None,None,no,9.60930383298546,,,,,,,,,,105,002,2021_Sep_29_1602,joplin1,2021.2.3,60.006030477342456,
,,,,,,,,,,,,,,,,,,,,,,,,,,,,,,,,,,,,,,,,,,,,,,,,,,,,,0.7,radio,0.3,Are you Asian?,2,None,None,no,16.192910708021373,,,,,,,,,,105,002,2021_Sep_29_1602,joplin1,2021.2.3,60.006030477342456,
,,,,,,,,,,,,,,,,,,,,,,,,,,,,,,,,,,,,,,,,,,,,,,,,,,,,,0.7,radio,0.3,Are you Black or African American?,3,None,None,no,17.657067875028588,,,,,,,,,,105,002,2021_Sep_29_1602,joplin1,2021.2.3,60.006030477342456,
,,,,,,,,,,,,,,,,,,,,,,,,,,,,,,,,,,,,,,,,,,,,,,,,,,,,,0.7,radio,0.3,Are you a Native Hawaiian or other Pacific Islander?,4,None,None,no,12.489704916952178,,,,,,,,,,105,002,2021_Sep_29_1602,joplin1,2021.2.3,60.006030477342456,
,,,,,,,,,,,,,,,,,,,,,,,,,,,,,,,,,,,,,,,,,,,,,,,,,,,,,0.7,radio,0.3,Are you White?,5,None,None,yes,13.223565708030947,,,,,,,,,,105,002,2021_Sep_29_1602,joplin1,2021.2.3,60.006030477342456,
,,,,,,,,,,,,,,,,,,,,,,,,,,,,,,,,,,,,,,,,,,,,,,,,,,,,,0.85,radio,0.3,"Do you have any history of neurological issues such as stroke, head injury or a neurodegenerative disorder?",6,None,None,no,18.660678207990713,,,,,,,,,,105,002,2021_Sep_29_1602,joplin1,2021.2.3,60.006030477342456,
,,,,,,,,,,,,,,,,,,,,,,,,,,,,,,,,,,,,,,,,,,,,,,,,,,,,,,,,,,,,,,return,42.93238587502856,,,,,,,,105,002,2021_Sep_29_1602,joplin1,2021.2.3,60.006030477342456,
,,,,,,,,,,,,,,,,,,,,,,,,,,,,,,,,,,,,,,,,,,,,,,,,,,,,,,,,,,,,,,,,return,5.7851264589698985,,,,,,105,002,2021_Sep_29_1602,joplin1,2021.2.3,60.006030477342456,
,,,,,,,,,,,,,,,,,,,,,,,,,,,,,,,,,,,,,,,,,,,,,,,,,,,,,,,,,,,,,,,,,,Female,18,y,5.151886708918028,,105,002,2021_Sep_29_1602,joplin1,2021.2.3,60.006030477342456,
,,,,,,,,,,,,,,,,,,,,,,,,,,,,,,,,,,,,,,,,,,,,,,,,,,,,,,,,,,,,,,,,,,,,,,0,,,,,,,
