train_set,stim_id,sums_feat,category,correct_key,gen_file,train_item,train_runs.thisRepN,train_runs.thisTrialN,train_runs.thisN,train_runs.thisIndex,train_trials.thisRepN,train_trials.thisTrialN,train_trials.thisN,train_trials.thisIndex,test_runs.thisRepN,test_runs.thisTrialN,test_runs.thisN,test_runs.thisIndex,test_trials.thisRepN,test_trials.thisTrialN,test_trials.thisN,test_trials.thisIndex,welcome_key.keys,welcome_key.rt,welcome_key.started,welcome_key.stopped,train_inst1_key.keys,train_inst1_key.rt,train_inst2_key.keys,train_inst2_key.rt,train_begin_key.keys,train_begin_key.rt,train_key.keys,train_key.corr,train_key.rt,break_key.keys,break_key.rt,key_resp.keys,key_resp.rt,test_inst1_key.keys,test_inst1_key.rt,test_inst2_key.keys,test_inst2_key.rt,test_begin_key.keys,test_begin_key.rt,test_key.keys,test_key.corr,test_key.rt,test_end_key.keys,demo_inst1_key.keys,form.questionWidth,form.type,form.respWidth,form.itemText,form.index,form.font,form.markerColor,form.response,form.rt,form_key.keys,demo_inst2_key.keys,gender_string,age_string,demo4_key.keys,typedWord,participant,session,date,expName,psychopyVersion,frameRate,
,,,,,,,,,,,,,,,,,,,,,,,space,18.806556958006695,1038.2070795000182,None,,,,,,,,,,,,,,,,,,,,,,,,,,,,,,,,,,,,,,,,105,001,2021_Sep_27_1459,joplin1,2021.2.3,59.90666554127757,
,,,,,,,,,,,,,,,,,,,,,,,,,,,f,16.98878216702724,,,,,,,,,,,,,,,,,,,,,,,,,,,,,,,,,,,,,,105,001,2021_Sep_27_1459,joplin1,2021.2.3,59.90666554127757,
,,,,,,,,,,,,,,,,,,,,,,,,,,,,,space,10.788731208012905,,,,,,,,,,,,,,,,,,,,,,,,,,,,,,,,,,,,105,001,2021_Sep_27_1459,joplin1,2021.2.3,59.90666554127757,
,,,,,,,,,,,,,,,,,,,,,,,,,,,,,,,space,2.262118541984819,,,,,,,,,,,,,,,,,,,,,,,,,,,,,,,,,,105,001,2021_Sep_27_1459,joplin1,2021.2.3,59.90666554127757,
_train_cond.csv,1 1 0 0 0 0 0 0 1 1,4,categoryB,j,,,0,0,0,2,0,0,0,13,,,,,,,,,,,,,,,,,,,j,1,2.264294875029009,,,,,,,,,,,,,,,,,,,,,,,,,,,,,,,105,001,2021_Sep_27_1459,joplin1,2021.2.3,59.90666554127757,
_train_cond.csv,0 0 1 1 1 1 1 1 0 0,6,categoryA,f,,,0,0,0,2,0,1,1,6,,,,,,,,,,,,,,,,,,,j,0,0.840906833007466,,,,,,,,,,,,,,,,,,,,,,,,,,,,,,,105,001,2021_Sep_27_1459,joplin1,2021.2.3,59.90666554127757,
_train_cond.csv,1 1 0 1 0 0 1 0 1 1,6,categoryA,f,,,0,0,0,2,0,2,2,2,,,,,,,,,,,,,,,,,,,f,1,1.1059079999686219,,,,,,,,,,,,,,,,,,,,,,,,,,,,,,,105,001,2021_Sep_27_1459,joplin1,2021.2.3,59.90666554127757,
_train_cond.csv,1 0 1 1 1 1 1 1 0 1,8,categoryA,f,,,0,0,0,2,0,3,3,1,,,,,,,,,,,,,,,,,,,j,0,0.8974771249922924,,,,,,,,,,,,,,,,,,,,,,,,,,,,,,,105,001,2021_Sep_27_1459,joplin1,2021.2.3,59.90666554127757,
_train_cond.csv,0 1 0 0 0 0 0 0 1 0,2,categoryB,j,,,0,0,0,2,0,4,4,8,,,,,,,,,,,,,,,,,,,f,0,0.041087042016442865,,,,,,,,,,,,,,,,,,,,,,,,,,,,,,,105,001,2021_Sep_27_1459,joplin1,2021.2.3,59.90666554127757,
_train_cond.csv,0 0 1 0 0 0 0 1 0 0,2,categoryB,j,,,0,0,0,2,0,5,5,12,,,,,,,,,,,,,,,,,,,f,0,0.2973382080090232,,,,,,,,,,,,,,,,,,,,,,,,,,,,,,,105,001,2021_Sep_27_1459,joplin1,2021.2.3,59.90666554127757,
_train_cond.csv,0 1 1 1 1 1 1 1 1 0,8,categoryA,f,,,0,0,0,2,0,6,6,0,,,,,,,,,,,,,,,,,,,f,1,0.35437958396505564,,,,,,,,,,,,,,,,,,,,,,,,,,,,,,,105,001,2021_Sep_27_1459,joplin1,2021.2.3,59.90666554127757,
_train_cond.csv,1 0 0 0 0 0 0 0 0 1,2,categoryB,j,,,0,0,0,2,0,7,7,7,,,,,,,,,,,,,,,,,,,j,1,1.1591000420157798,,,,,,,,,,,,,,,,,,,,,,,,,,,,,,,105,001,2021_Sep_27_1459,joplin1,2021.2.3,59.90666554127757,
_train_cond.csv,1 1 0 1 1 1 1 0 1 1,8,categoryA,f,,,0,0,0,2,0,8,8,5,,,,,,,,,,,,,,,,,,,f,1,0.8365495839971118,,,,,,,,,,,,,,,,,,,,,,,,,,,,,,,105,001,2021_Sep_27_1459,joplin1,2021.2.3,59.90666554127757,
_train_cond.csv,1 1 1 0 0 0 0 1 1 1,6,categoryA,f,,,0,0,0,2,0,9,9,3,,,,,,,,,,,,,,,,,,,f,1,0.06302008300554007,,,,,,,,,,,,,,,,,,,,,,,,,,,,,,,105,001,2021_Sep_27_1459,joplin1,2021.2.3,59.90666554127757,
_train_cond.csv,1 1 1 0 1 1 0 1 1 1,8,categoryA,f,,,0,0,0,2,0,10,10,4,,,,,,,,,,,,,,,,,,,j,0,0.6249296669848263,,,,,,,,,,,,,,,,,,,,,,,,,,,,,,,105,001,2021_Sep_27_1459,joplin1,2021.2.3,59.90666554127757,
_train_cond.csv,0 0 0 1 0 0 1 0 0 0,2,categoryB,j,,,0,0,0,2,0,11,11,11,,,,,,,,,,,,,,,,,,,f,0,0.6360617500031367,,,,,,,,,,,,,,,,,,,,,,,,,,,,,,,105,001,2021_Sep_27_1459,joplin1,2021.2.3,59.90666554127757,
_train_cond.csv,0 0 0 1 1 1 1 0 0 0,4,categoryB,j,,,0,0,0,2,0,12,12,10,,,,,,,,,,,,,,,,,,,f,0,0.6621142500080168,,,,,,,,,,,,,,,,,,,,,,,,,,,,,,,105,001,2021_Sep_27_1459,joplin1,2021.2.3,59.90666554127757,
_train_cond.csv,0 0 1 0 1 1 0 1 0 0,4,categoryB,j,,,0,0,0,2,0,13,13,9,,,,,,,,,,,,,,,,,,,j,1,0.64532816701103,,,,,,,,,,,,,,,,,,,,,,,,,,,,,,,105,001,2021_Sep_27_1459,joplin1,2021.2.3,59.90666554127757,
_train_cond.csv,1 1 0 0 0 0 0 0 1 1,4,categoryB,j,,,0,0,0,2,1,0,14,13,,,,,,,,,,,,,,,,,,,j,1,0.08841683302307501,,,,,,,,,,,,,,,,,,,,,,,,,,,,,,,105,001,2021_Sep_27_1459,joplin1,2021.2.3,59.90666554127757,
_train_cond.csv,0 0 1 0 0 0 0 1 0 0,2,categoryB,j,,,0,0,0,2,1,1,15,12,,,,,,,,,,,,,,,,,,,j,1,0.4905660000513308,,,,,,,,,,,,,,,,,,,,,,,,,,,,,,,105,001,2021_Sep_27_1459,joplin1,2021.2.3,59.90666554127757,
_train_cond.csv,1 1 0 1 0 0 1 0 1 1,6,categoryA,f,,,0,0,0,2,1,2,16,2,,,,,,,,,,,,,,,,,,,f,1,0.5806079170433804,,,,,,,,,,,,,,,,,,,,,,,,,,,,,,,105,001,2021_Sep_27_1459,joplin1,2021.2.3,59.90666554127757,
_train_cond.csv,1 1 1 0 1 1 0 1 1 1,8,categoryA,f,,,0,0,0,2,1,3,17,4,,,,,,,,,,,,,,,,,,,f,1,0.41851170803420246,,,,,,,,,,,,,,,,,,,,,,,,,,,,,,,105,001,2021_Sep_27_1459,joplin1,2021.2.3,59.90666554127757,
_train_cond.csv,1 1 0 1 1 1 1 0 1 1,8,categoryA,f,,,0,0,0,2,1,4,18,5,,,,,,,,,,,,,,,,,,,f,1,1.679746417037677,,,,,,,,,,,,,,,,,,,,,,,,,,,,,,,105,001,2021_Sep_27_1459,joplin1,2021.2.3,59.90666554127757,
_train_cond.csv,0 0 1 1 1 1 1 1 0 0,6,categoryA,f,,,0,0,0,2,1,5,19,6,,,,,,,,,,,,,,,,,,,j,0,0.1616833339794539,,,,,,,,,,,,,,,,,,,,,,,,,,,,,,,105,001,2021_Sep_27_1459,joplin1,2021.2.3,59.90666554127757,
_train_cond.csv,1 0 1 1 1 1 1 1 0 1,8,categoryA,f,,,0,0,0,2,1,6,20,1,,,,,,,,,,,,,,,,,,,f,1,1.191632625006605,,,,,,,,,,,,,,,,,,,,,,,,,,,,,,,105,001,2021_Sep_27_1459,joplin1,2021.2.3,59.90666554127757,
_train_cond.csv,1 0 0 0 0 0 0 0 0 1,2,categoryB,j,,,0,0,0,2,1,7,21,7,,,,,,,,,,,,,,,,,,,f,0,0.5654335839790292,,,,,,,,,,,,,,,,,,,,,,,,,,,,,,,105,001,2021_Sep_27_1459,joplin1,2021.2.3,59.90666554127757,
_train_cond.csv,0 0 0 1 0 0 1 0 0 0,2,categoryB,j,,,0,0,0,2,1,8,22,11,,,,,,,,,,,,,,,,,,,j,1,1.8048654579906724,,,,,,,,,,,,,,,,,,,,,,,,,,,,,,,105,001,2021_Sep_27_1459,joplin1,2021.2.3,59.90666554127757,
_train_cond.csv,0 1 1 1 1 1 1 1 1 0,8,categoryA,f,,,0,0,0,2,1,9,23,0,,,,,,,,,,,,,,,,,,,f,1,1.3771566250361502,,,,,,,,,,,,,,,,,,,,,,,,,,,,,,,105,001,2021_Sep_27_1459,joplin1,2021.2.3,59.90666554127757,
_train_cond.csv,0 0 1 0 1 1 0 1 0 0,4,categoryB,j,,,0,0,0,2,1,10,24,9,,,,,,,,,,,,,,,,,,,j,1,0.11934041703352705,,,,,,,,,,,,,,,,,,,,,,,,,,,,,,,105,001,2021_Sep_27_1459,joplin1,2021.2.3,59.90666554127757,
_train_cond.csv,0 1 0 0 0 0 0 0 1 0,2,categoryB,j,,,0,0,0,2,1,11,25,8,,,,,,,,,,,,,,,,,,,f,0,0.40762424998683855,,,,,,,,,,,,,,,,,,,,,,,,,,,,,,,105,001,2021_Sep_27_1459,joplin1,2021.2.3,59.90666554127757,
_train_cond.csv,1 1 1 0 0 0 0 1 1 1,6,categoryA,f,,,0,0,0,2,1,12,26,3,,,,,,,,,,,,,,,,,,,f,1,0.24474799999734387,,,,,,,,,,,,,,,,,,,,,,,,,,,,,,,105,001,2021_Sep_27_1459,joplin1,2021.2.3,59.90666554127757,
_train_cond.csv,0 0 0 1 1 1 1 0 0 0,4,categoryB,j,,,0,0,0,2,1,13,27,10,,,,,,,,,,,,,,,,,,,j,1,0.01498129201354459,,,,,,,,,,,,,,,,,,,,,,,,,,,,,,,105,001,2021_Sep_27_1459,joplin1,2021.2.3,59.90666554127757,
_train_cond.csv,0 1 0 0 0 0 0 0 1 0,2,categoryB,j,,,0,0,0,2,2,0,28,8,,,,,,,,,,,,,,,,,,,j,1,1.4178694169968367,,,,,,,,,,,,,,,,,,,,,,,,,,,,,,,105,001,2021_Sep_27_1459,joplin1,2021.2.3,59.90666554127757,
_train_cond.csv,1 0 1 1 1 1 1 1 0 1,8,categoryA,f,,,0,0,0,2,2,1,29,1,,,,,,,,,,,,,,,,,,,j,0,0.3657930830377154,,,,,,,,,,,,,,,,,,,,,,,,,,,,,,,105,001,2021_Sep_27_1459,joplin1,2021.2.3,59.90666554127757,
_train_cond.csv,0 0 1 0 0 0 0 1 0 0,2,categoryB,j,,,0,0,0,2,2,2,30,12,,,,,,,,,,,,,,,,,,,j,1,0.07600470900069922,,,,,,,,,,,,,,,,,,,,,,,,,,,,,,,105,001,2021_Sep_27_1459,joplin1,2021.2.3,59.90666554127757,
_train_cond.csv,0 0 1 0 1 1 0 1 0 0,4,categoryB,j,,,0,0,0,2,2,3,31,9,,,,,,,,,,,,,,,,,,,j,1,0.5259307500091381,,,,,,,,,,,,,,,,,,,,,,,,,,,,,,,105,001,2021_Sep_27_1459,joplin1,2021.2.3,59.90666554127757,
_train_cond.csv,1 1 1 0 0 0 0 1 1 1,6,categoryA,f,,,0,0,0,2,2,4,32,3,,,,,,,,,,,,,,,,,,,f,1,0.6883053330238909,,,,,,,,,,,,,,,,,,,,,,,,,,,,,,,105,001,2021_Sep_27_1459,joplin1,2021.2.3,59.90666554127757,
_train_cond.csv,1 1 0 1 0 0 1 0 1 1,6,categoryA,f,,,0,0,0,2,2,5,33,2,,,,,,,,,,,,,,,,,,,f,1,0.49800029199104756,,,,,,,,,,,,,,,,,,,,,,,,,,,,,,,105,001,2021_Sep_27_1459,joplin1,2021.2.3,59.90666554127757,
_train_cond.csv,0 0 0 1 0 0 1 0 0 0,2,categoryB,j,,,0,0,0,2,2,6,34,11,,,,,,,,,,,,,,,,,,,j,1,0.06030158302746713,,,,,,,,,,,,,,,,,,,,,,,,,,,,,,,105,001,2021_Sep_27_1459,joplin1,2021.2.3,59.90666554127757,
_train_cond.csv,0 0 1 1 1 1 1 1 0 0,6,categoryA,f,,,0,0,0,2,2,7,35,6,,,,,,,,,,,,,,,,,,,j,0,0.7424513340229169,,,,,,,,,,,,,,,,,,,,,,,,,,,,,,,105,001,2021_Sep_27_1459,joplin1,2021.2.3,59.90666554127757,
_train_cond.csv,1 1 0 0 0 0 0 0 1 1,4,categoryB,j,,,0,0,0,2,2,8,36,13,,,,,,,,,,,,,,,,,,,f,0,0.3092104160459712,,,,,,,,,,,,,,,,,,,,,,,,,,,,,,,105,001,2021_Sep_27_1459,joplin1,2021.2.3,59.90666554127757,
_train_cond.csv,0 0 0 1 1 1 1 0 0 0,4,categoryB,j,,,0,0,0,2,2,9,37,10,,,,,,,,,,,,,,,,,,,f,0,0.3673167909728363,,,,,,,,,,,,,,,,,,,,,,,,,,,,,,,105,001,2021_Sep_27_1459,joplin1,2021.2.3,59.90666554127757,
_train_cond.csv,0 1 1 1 1 1 1 1 1 0,8,categoryA,f,,,0,0,0,2,2,10,38,0,,,,,,,,,,,,,,,,,,,f,1,0.5900137079879642,,,,,,,,,,,,,,,,,,,,,,,,,,,,,,,105,001,2021_Sep_27_1459,joplin1,2021.2.3,59.90666554127757,
_train_cond.csv,1 1 0 1 1 1 1 0 1 1,8,categoryA,f,,,0,0,0,2,2,11,39,5,,,,,,,,,,,,,,,,,,,j,0,1.796818709000945,,,,,,,,,,,,,,,,,,,,,,,,,,,,,,,105,001,2021_Sep_27_1459,joplin1,2021.2.3,59.90666554127757,
_train_cond.csv,1 0 0 0 0 0 0 0 0 1,2,categoryB,j,,,0,0,0,2,2,12,40,7,,,,,,,,,,,,,,,,,,,f,0,1.129550207988359,,,,,,,,,,,,,,,,,,,,,,,,,,,,,,,105,001,2021_Sep_27_1459,joplin1,2021.2.3,59.90666554127757,
_train_cond.csv,1 1 1 0 1 1 0 1 1 1,8,categoryA,f,,,0,0,0,2,2,13,41,4,,,,,,,,,,,,,,,,,,,j,0,2.0731825419934466,,,,,,,,,,,,,,,,,,,,,,,,,,,,,,,105,001,2021_Sep_27_1459,joplin1,2021.2.3,59.90666554127757,
_train_cond.csv,,,,,,,0,0,0,2,,,,,,,,,,,,,,,,,,,,,,,,,,space,9.4201272080536,,,,,,,,,,,,,,,,,,,,,,,,,,,,,105,001,2021_Sep_27_1459,joplin1,2021.2.3,59.90666554127757,
_train_cond.csv,1 0 1 1 1 1 1 1 0 1,8,categoryA,f,,,0,1,1,3,0,0,0,1,,,,,,,,,,,,,,,,,,,j,0,1.4950389160076156,,,,,,,,,,,,,,,,,,,,,,,,,,,,,,,105,001,2021_Sep_27_1459,joplin1,2021.2.3,59.90666554127757,
_train_cond.csv,0 0 1 1 1 1 1 1 0 0,6,categoryA,f,,,0,1,1,3,0,1,1,6,,,,,,,,,,,,,,,,,,,f,1,0.5109755410230719,,,,,,,,,,,,,,,,,,,,,,,,,,,,,,,105,001,2021_Sep_27_1459,joplin1,2021.2.3,59.90666554127757,
_train_cond.csv,1 1 0 0 0 0 0 0 1 1,4,categoryB,j,,,0,1,1,3,0,2,2,13,,,,,,,,,,,,,,,,,,,j,1,1.129237999964971,,,,,,,,,,,,,,,,,,,,,,,,,,,,,,,105,001,2021_Sep_27_1459,joplin1,2021.2.3,59.90666554127757,
_train_cond.csv,1 1 0 1 0 0 1 0 1 1,6,categoryA,f,,,0,1,1,3,0,3,3,2,,,,,,,,,,,,,,,,,,,j,0,0.5923756249831058,,,,,,,,,,,,,,,,,,,,,,,,,,,,,,,105,001,2021_Sep_27_1459,joplin1,2021.2.3,59.90666554127757,
_train_cond.csv,0 1 1 1 1 1 1 1 1 0,8,categoryA,f,,,0,1,1,3,0,4,4,0,,,,,,,,,,,,,,,,,,,f,1,0.42999237502226606,,,,,,,,,,,,,,,,,,,,,,,,,,,,,,,105,001,2021_Sep_27_1459,joplin1,2021.2.3,59.90666554127757,
_train_cond.csv,0 0 1 0 0 0 0 1 0 0,2,categoryB,j,,,0,1,1,3,0,5,5,12,,,,,,,,,,,,,,,,,,,j,1,0.13767000002553686,,,,,,,,,,,,,,,,,,,,,,,,,,,,,,,105,001,2021_Sep_27_1459,joplin1,2021.2.3,59.90666554127757,
_train_cond.csv,1 1 1 0 1 1 0 1 1 1,8,categoryA,f,,,0,1,1,3,0,6,6,4,,,,,,,,,,,,,,,,,,,f,1,0.6488199579762295,,,,,,,,,,,,,,,,,,,,,,,,,,,,,,,105,001,2021_Sep_27_1459,joplin1,2021.2.3,59.90666554127757,
_train_cond.csv,0 0 0 1 0 0 1 0 0 0,2,categoryB,j,,,0,1,1,3,0,7,7,11,,,,,,,,,,,,,,,,,,,j,1,1.6209487919695675,,,,,,,,,,,,,,,,,,,,,,,,,,,,,,,105,001,2021_Sep_27_1459,joplin1,2021.2.3,59.90666554127757,
_train_cond.csv,0 1 0 0 0 0 0 0 1 0,2,categoryB,j,,,0,1,1,3,0,8,8,8,,,,,,,,,,,,,,,,,,,None,0,,,,,,,,,,,,,,,,,,,,,,,,,,,,,,,,105,001,2021_Sep_27_1459,joplin1,2021.2.3,59.90666554127757,
_train_cond.csv,1 1 0 1 1 1 1 0 1 1,8,categoryA,f,,,0,1,1,3,0,9,9,5,,,,,,,,,,,,,,,,,,,f,1,0.4785345830023289,,,,,,,,,,,,,,,,,,,,,,,,,,,,,,,105,001,2021_Sep_27_1459,joplin1,2021.2.3,59.90666554127757,
_train_cond.csv,0 0 1 0 1 1 0 1 0 0,4,categoryB,j,,,0,1,1,3,0,10,10,9,,,,,,,,,,,,,,,,,,,f,0,0.7764763329760171,,,,,,,,,,,,,,,,,,,,,,,,,,,,,,,105,001,2021_Sep_27_1459,joplin1,2021.2.3,59.90666554127757,
_train_cond.csv,1 0 0 0 0 0 0 0 0 1,2,categoryB,j,,,0,1,1,3,0,11,11,7,,,,,,,,,,,,,,,,,,,f,0,0.8398500000475906,,,,,,,,,,,,,,,,,,,,,,,,,,,,,,,105,001,2021_Sep_27_1459,joplin1,2021.2.3,59.90666554127757,
_train_cond.csv,0 0 0 1 1 1 1 0 0 0,4,categoryB,j,,,0,1,1,3,0,12,12,10,,,,,,,,,,,,,,,,,,,j,1,0.07491091702831909,,,,,,,,,,,,,,,,,,,,,,,,,,,,,,,105,001,2021_Sep_27_1459,joplin1,2021.2.3,59.90666554127757,
_train_cond.csv,1 1 1 0 0 0 0 1 1 1,6,categoryA,f,,,0,1,1,3,0,13,13,3,,,,,,,,,,,,,,,,,,,f,1,0.9811074169701897,,,,,,,,,,,,,,,,,,,,,,,,,,,,,,,105,001,2021_Sep_27_1459,joplin1,2021.2.3,59.90666554127757,
_train_cond.csv,1 1 1 0 0 0 0 1 1 1,6,categoryA,f,,,0,1,1,3,1,0,14,3,,,,,,,,,,,,,,,,,,,j,0,0.9008981250226498,,,,,,,,,,,,,,,,,,,,,,,,,,,,,,,105,001,2021_Sep_27_1459,joplin1,2021.2.3,59.90666554127757,
_train_cond.csv,1 0 0 0 0 0 0 0 0 1,2,categoryB,j,,,0,1,1,3,1,1,15,7,,,,,,,,,,,,,,,,,,,j,1,0.7900078329839744,,,,,,,,,,,,,,,,,,,,,,,,,,,,,,,105,001,2021_Sep_27_1459,joplin1,2021.2.3,59.90666554127757,
_train_cond.csv,0 0 0 1 1 1 1 0 0 0,4,categoryB,j,,,0,1,1,3,1,2,16,10,,,,,,,,,,,,,,,,,,,j,1,0.5401712920283899,,,,,,,,,,,,,,,,,,,,,,,,,,,,,,,105,001,2021_Sep_27_1459,joplin1,2021.2.3,59.90666554127757,
_train_cond.csv,0 1 1 1 1 1 1 1 1 0,8,categoryA,f,,,0,1,1,3,1,3,17,0,,,,,,,,,,,,,,,,,,,f,1,0.0521984159713611,,,,,,,,,,,,,,,,,,,,,,,,,,,,,,,105,001,2021_Sep_27_1459,joplin1,2021.2.3,59.90666554127757,
_train_cond.csv,1 1 0 0 0 0 0 0 1 1,4,categoryB,j,,,0,1,1,3,1,4,18,13,,,,,,,,,,,,,,,,,,,f,0,0.19918612495530397,,,,,,,,,,,,,,,,,,,,,,,,,,,,,,,105,001,2021_Sep_27_1459,joplin1,2021.2.3,59.90666554127757,
_train_cond.csv,0 0 0 1 0 0 1 0 0 0,2,categoryB,j,,,0,1,1,3,1,5,19,11,,,,,,,,,,,,,,,,,,,j,1,0.1409550840035081,,,,,,,,,,,,,,,,,,,,,,,,,,,,,,,105,001,2021_Sep_27_1459,joplin1,2021.2.3,59.90666554127757,
_train_cond.csv,1 0 1 1 1 1 1 1 0 1,8,categoryA,f,,,0,1,1,3,1,6,20,1,,,,,,,,,,,,,,,,,,,j,0,0.02625416702358052,,,,,,,,,,,,,,,,,,,,,,,,,,,,,,,105,001,2021_Sep_27_1459,joplin1,2021.2.3,59.90666554127757,
_train_cond.csv,0 1 0 0 0 0 0 0 1 0,2,categoryB,j,,,0,1,1,3,1,7,21,8,,,,,,,,,,,,,,,,,,,f,0,0.1893211249844171,,,,,,,,,,,,,,,,,,,,,,,,,,,,,,,105,001,2021_Sep_27_1459,joplin1,2021.2.3,59.90666554127757,
_train_cond.csv,1 1 0 1 1 1 1 0 1 1,8,categoryA,f,,,0,1,1,3,1,8,22,5,,,,,,,,,,,,,,,,,,,j,0,0.8034159580129199,,,,,,,,,,,,,,,,,,,,,,,,,,,,,,,105,001,2021_Sep_27_1459,joplin1,2021.2.3,59.90666554127757,
_train_cond.csv,0 0 1 1 1 1 1 1 0 0,6,categoryA,f,,,0,1,1,3,1,9,23,6,,,,,,,,,,,,,,,,,,,j,0,0.5892952909925953,,,,,,,,,,,,,,,,,,,,,,,,,,,,,,,105,001,2021_Sep_27_1459,joplin1,2021.2.3,59.90666554127757,
_train_cond.csv,1 1 0 1 0 0 1 0 1 1,6,categoryA,f,,,0,1,1,3,1,10,24,2,,,,,,,,,,,,,,,,,,,f,1,1.0520909579936415,,,,,,,,,,,,,,,,,,,,,,,,,,,,,,,105,001,2021_Sep_27_1459,joplin1,2021.2.3,59.90666554127757,
_train_cond.csv,1 1 1 0 1 1 0 1 1 1,8,categoryA,f,,,0,1,1,3,1,11,25,4,,,,,,,,,,,,,,,,,,,f,1,1.335469165991526,,,,,,,,,,,,,,,,,,,,,,,,,,,,,,,105,001,2021_Sep_27_1459,joplin1,2021.2.3,59.90666554127757,
_train_cond.csv,0 0 1 0 1 1 0 1 0 0,4,categoryB,j,,,0,1,1,3,1,12,26,9,,,,,,,,,,,,,,,,,,,j,1,0.20862854103324935,,,,,,,,,,,,,,,,,,,,,,,,,,,,,,,105,001,2021_Sep_27_1459,joplin1,2021.2.3,59.90666554127757,
_train_cond.csv,0 0 1 0 0 0 0 1 0 0,2,categoryB,j,,,0,1,1,3,1,13,27,12,,,,,,,,,,,,,,,,,,,f,0,0.12276020896388218,,,,,,,,,,,,,,,,,,,,,,,,,,,,,,,105,001,2021_Sep_27_1459,joplin1,2021.2.3,59.90666554127757,
_train_cond.csv,0 1 1 1 1 1 1 1 1 0,8,categoryA,f,,,0,1,1,3,2,0,28,0,,,,,,,,,,,,,,,,,,,f,1,0.7161291659576818,,,,,,,,,,,,,,,,,,,,,,,,,,,,,,,105,001,2021_Sep_27_1459,joplin1,2021.2.3,59.90666554127757,
_train_cond.csv,1 1 0 1 1 1 1 0 1 1,8,categoryA,f,,,0,1,1,3,2,1,29,5,,,,,,,,,,,,,,,,,,,f,1,0.8043725420138799,,,,,,,,,,,,,,,,,,,,,,,,,,,,,,,105,001,2021_Sep_27_1459,joplin1,2021.2.3,59.90666554127757,
_train_cond.csv,0 0 1 0 1 1 0 1 0 0,4,categoryB,j,,,0,1,1,3,2,2,30,9,,,,,,,,,,,,,,,,,,,j,1,0.4102722089737654,,,,,,,,,,,,,,,,,,,,,,,,,,,,,,,105,001,2021_Sep_27_1459,joplin1,2021.2.3,59.90666554127757,
_train_cond.csv,1 0 1 1 1 1 1 1 0 1,8,categoryA,f,,,0,1,1,3,2,3,31,1,,,,,,,,,,,,,,,,,,,f,1,1.566969915991649,,,,,,,,,,,,,,,,,,,,,,,,,,,,,,,105,001,2021_Sep_27_1459,joplin1,2021.2.3,59.90666554127757,
_train_cond.csv,0 0 1 0 0 0 0 1 0 0,2,categoryB,j,,,0,1,1,3,2,4,32,12,,,,,,,,,,,,,,,,,,,j,1,0.8938304579933174,,,,,,,,,,,,,,,,,,,,,,,,,,,,,,,105,001,2021_Sep_27_1459,joplin1,2021.2.3,59.90666554127757,
_train_cond.csv,0 0 0 1 1 1 1 0 0 0,4,categoryB,j,,,0,1,1,3,2,5,33,10,,,,,,,,,,,,,,,,,,,j,1,1.351976458041463,,,,,,,,,,,,,,,,,,,,,,,,,,,,,,,105,001,2021_Sep_27_1459,joplin1,2021.2.3,59.90666554127757,
_train_cond.csv,1 1 0 1 0 0 1 0 1 1,6,categoryA,f,,,0,1,1,3,2,6,34,2,,,,,,,,,,,,,,,,,,,f,1,1.2963437080034055,,,,,,,,,,,,,,,,,,,,,,,,,,,,,,,105,001,2021_Sep_27_1459,joplin1,2021.2.3,59.90666554127757,
_train_cond.csv,1 0 0 0 0 0 0 0 0 1,2,categoryB,j,,,0,1,1,3,2,7,35,7,,,,,,,,,,,,,,,,,,,j,1,0.9858833749894984,,,,,,,,,,,,,,,,,,,,,,,,,,,,,,,105,001,2021_Sep_27_1459,joplin1,2021.2.3,59.90666554127757,
_train_cond.csv,1 1 0 0 0 0 0 0 1 1,4,categoryB,j,,,0,1,1,3,2,8,36,13,,,,,,,,,,,,,,,,,,,f,0,0.951257708016783,,,,,,,,,,,,,,,,,,,,,,,,,,,,,,,105,001,2021_Sep_27_1459,joplin1,2021.2.3,59.90666554127757,
_train_cond.csv,0 0 0 1 0 0 1 0 0 0,2,categoryB,j,,,0,1,1,3,2,9,37,11,,,,,,,,,,,,,,,,,,,j,1,0.36636124999495223,,,,,,,,,,,,,,,,,,,,,,,,,,,,,,,105,001,2021_Sep_27_1459,joplin1,2021.2.3,59.90666554127757,
_train_cond.csv,1 1 1 0 1 1 0 1 1 1,8,categoryA,f,,,0,1,1,3,2,10,38,4,,,,,,,,,,,,,,,,,,,f,1,0.7887123340042308,,,,,,,,,,,,,,,,,,,,,,,,,,,,,,,105,001,2021_Sep_27_1459,joplin1,2021.2.3,59.90666554127757,
_train_cond.csv,1 1 1 0 0 0 0 1 1 1,6,categoryA,f,,,0,1,1,3,2,11,39,3,,,,,,,,,,,,,,,,,,,f,1,0.7467077089822851,,,,,,,,,,,,,,,,,,,,,,,,,,,,,,,105,001,2021_Sep_27_1459,joplin1,2021.2.3,59.90666554127757,
_train_cond.csv,0 1 0 0 0 0 0 0 1 0,2,categoryB,j,,,0,1,1,3,2,12,40,8,,,,,,,,,,,,,,,,,,,None,0,,,,,,,,,,,,,,,,,,,,,,,,,,,,,,,,105,001,2021_Sep_27_1459,joplin1,2021.2.3,59.90666554127757,
_train_cond.csv,0 0 1 1 1 1 1 1 0 0,6,categoryA,f,,,0,1,1,3,2,13,41,6,,,,,,,,,,,,,,,,,,,j,0,0.6083518330124207,,,,,,,,,,,,,,,,,,,,,,,,,,,,,,,105,001,2021_Sep_27_1459,joplin1,2021.2.3,59.90666554127757,
_train_cond.csv,,,,,,,0,1,1,3,,,,,,,,,,,,,,,,,,,,,,,,,,space,5.149890957982279,,,,,,,,,,,,,,,,,,,,,,,,,,,,,105,001,2021_Sep_27_1459,joplin1,2021.2.3,59.90666554127757,
_train_cond.csv,0 0 1 0 1 1 0 1 0 0,4,categoryB,j,,,0,2,2,7,0,0,0,9,,,,,,,,,,,,,,,,,,,j,1,0.5510486669954844,,,,,,,,,,,,,,,,,,,,,,,,,,,,,,,105,001,2021_Sep_27_1459,joplin1,2021.2.3,59.90666554127757,
_train_cond.csv,1 1 1 0 0 0 0 1 1 1,6,categoryA,f,,,0,2,2,7,0,1,1,3,,,,,,,,,,,,,,,,,,,f,1,0.15823154198005795,,,,,,,,,,,,,,,,,,,,,,,,,,,,,,,105,001,2021_Sep_27_1459,joplin1,2021.2.3,59.90666554127757,
_train_cond.csv,1 1 1 0 1 1 0 1 1 1,8,categoryA,f,,,0,2,2,7,0,2,2,4,,,,,,,,,,,,,,,,,,,f,1,0.42960379197029397,,,,,,,,,,,,,,,,,,,,,,,,,,,,,,,105,001,2021_Sep_27_1459,joplin1,2021.2.3,59.90666554127757,
_train_cond.csv,0 1 1 1 1 1 1 1 1 0,8,categoryA,f,,,0,2,2,7,0,3,3,0,,,,,,,,,,,,,,,,,,,j,0,0.4097907919785939,,,,,,,,,,,,,,,,,,,,,,,,,,,,,,,105,001,2021_Sep_27_1459,joplin1,2021.2.3,59.90666554127757,
_train_cond.csv,0 0 1 1 1 1 1 1 0 0,6,categoryA,f,,,0,2,2,7,0,4,4,6,,,,,,,,,,,,,,,,,,,j,0,0.36776079202536494,,,,,,,,,,,,,,,,,,,,,,,,,,,,,,,105,001,2021_Sep_27_1459,joplin1,2021.2.3,59.90666554127757,
_train_cond.csv,0 0 0 1 1 1 1 0 0 0,4,categoryB,j,,,0,2,2,7,0,5,5,10,,,,,,,,,,,,,,,,,,,f,0,0.4065922920126468,,,,,,,,,,,,,,,,,,,,,,,,,,,,,,,105,001,2021_Sep_27_1459,joplin1,2021.2.3,59.90666554127757,
_train_cond.csv,1 0 0 0 0 0 0 0 0 1,2,categoryB,j,,,0,2,2,7,0,6,6,7,,,,,,,,,,,,,,,,,,,j,1,0.8596722499933094,,,,,,,,,,,,,,,,,,,,,,,,,,,,,,,105,001,2021_Sep_27_1459,joplin1,2021.2.3,59.90666554127757,
_train_cond.csv,1 1 0 0 0 0 0 0 1 1,4,categoryB,j,,,0,2,2,7,0,7,7,13,,,,,,,,,,,,,,,,,,,j,1,0.0471178749576211,,,,,,,,,,,,,,,,,,,,,,,,,,,,,,,105,001,2021_Sep_27_1459,joplin1,2021.2.3,59.90666554127757,
_train_cond.csv,0 0 1 0 0 0 0 1 0 0,2,categoryB,j,,,0,2,2,7,0,8,8,12,,,,,,,,,,,,,,,,,,,j,1,0.011072666035033762,,,,,,,,,,,,,,,,,,,,,,,,,,,,,,,105,001,2021_Sep_27_1459,joplin1,2021.2.3,59.90666554127757,
_train_cond.csv,1 1 0 1 0 0 1 0 1 1,6,categoryA,f,,,0,2,2,7,0,9,9,2,,,,,,,,,,,,,,,,,,,j,0,0.007872792019043118,,,,,,,,,,,,,,,,,,,,,,,,,,,,,,,105,001,2021_Sep_27_1459,joplin1,2021.2.3,59.90666554127757,
_train_cond.csv,1 0 1 1 1 1 1 1 0 1,8,categoryA,f,,,0,2,2,7,0,10,10,1,,,,,,,,,,,,,,,,,,,f,1,0.23612533300183713,,,,,,,,,,,,,,,,,,,,,,,,,,,,,,,105,001,2021_Sep_27_1459,joplin1,2021.2.3,59.90666554127757,
_train_cond.csv,0 0 0 1 0 0 1 0 0 0,2,categoryB,j,,,0,2,2,7,0,11,11,11,,,,,,,,,,,,,,,,,,,j,1,0.06390583398751915,,,,,,,,,,,,,,,,,,,,,,,,,,,,,,,105,001,2021_Sep_27_1459,joplin1,2021.2.3,59.90666554127757,
_train_cond.csv,1 1 0 1 1 1 1 0 1 1,8,categoryA,f,,,0,2,2,7,0,12,12,5,,,,,,,,,,,,,,,,,,,j,0,0.17900200001895428,,,,,,,,,,,,,,,,,,,,,,,,,,,,,,,105,001,2021_Sep_27_1459,joplin1,2021.2.3,59.90666554127757,
_train_cond.csv,0 1 0 0 0 0 0 0 1 0,2,categoryB,j,,,0,2,2,7,0,13,13,8,,,,,,,,,,,,,,,,,,,j,1,0.0012206670362502337,,,,,,,,,,,,,,,,,,,,,,,,,,,,,,,105,001,2021_Sep_27_1459,joplin1,2021.2.3,59.90666554127757,
_train_cond.csv,0 0 1 0 0 0 0 1 0 0,2,categoryB,j,,,0,2,2,7,1,0,14,12,,,,,,,,,,,,,,,,,,,j,1,0.382894792011939,,,,,,,,,,,,,,,,,,,,,,,,,,,,,,,105,001,2021_Sep_27_1459,joplin1,2021.2.3,59.90666554127757,
_train_cond.csv,1 0 1 1 1 1 1 1 0 1,8,categoryA,f,,,0,2,2,7,1,1,15,1,,,,,,,,,,,,,,,,,,,f,1,0.06174620904494077,,,,,,,,,,,,,,,,,,,,,,,,,,,,,,,105,001,2021_Sep_27_1459,joplin1,2021.2.3,59.90666554127757,
_train_cond.csv,0 1 1 1 1 1 1 1 1 0,8,categoryA,f,,,0,2,2,7,1,2,16,0,,,,,,,,,,,,,,,,,,,f,1,0.7291450829943642,,,,,,,,,,,,,,,,,,,,,,,,,,,,,,,105,001,2021_Sep_27_1459,joplin1,2021.2.3,59.90666554127757,
_train_cond.csv,1 1 0 1 1 1 1 0 1 1,8,categoryA,f,,,0,2,2,7,1,3,17,5,,,,,,,,,,,,,,,,,,,j,0,0.025047083967365324,,,,,,,,,,,,,,,,,,,,,,,,,,,,,,,105,001,2021_Sep_27_1459,joplin1,2021.2.3,59.90666554127757,
_train_cond.csv,1 1 0 1 0 0 1 0 1 1,6,categoryA,f,,,0,2,2,7,1,4,18,2,,,,,,,,,,,,,,,,,,,j,0,0.4777269590413198,,,,,,,,,,,,,,,,,,,,,,,,,,,,,,,105,001,2021_Sep_27_1459,joplin1,2021.2.3,59.90666554127757,
_train_cond.csv,1 1 1 0 0 0 0 1 1 1,6,categoryA,f,,,0,2,2,7,1,5,19,3,,,,,,,,,,,,,,,,,,,j,0,0.09710612497292459,,,,,,,,,,,,,,,,,,,,,,,,,,,,,,,105,001,2021_Sep_27_1459,joplin1,2021.2.3,59.90666554127757,
_train_cond.csv,1 1 0 0 0 0 0 0 1 1,4,categoryB,j,,,0,2,2,7,1,6,20,13,,,,,,,,,,,,,,,,,,,f,0,0.3556279999902472,,,,,,,,,,,,,,,,,,,,,,,,,,,,,,,105,001,2021_Sep_27_1459,joplin1,2021.2.3,59.90666554127757,
_train_cond.csv,0 0 0 1 1 1 1 0 0 0,4,categoryB,j,,,0,2,2,7,1,7,21,10,,,,,,,,,,,,,,,,,,,j,1,0.8507854170165956,,,,,,,,,,,,,,,,,,,,,,,,,,,,,,,105,001,2021_Sep_27_1459,joplin1,2021.2.3,59.90666554127757,
_train_cond.csv,0 0 1 1 1 1 1 1 0 0,6,categoryA,f,,,0,2,2,7,1,8,22,6,,,,,,,,,,,,,,,,,,,f,1,0.548440708022099,,,,,,,,,,,,,,,,,,,,,,,,,,,,,,,105,001,2021_Sep_27_1459,joplin1,2021.2.3,59.90666554127757,
_train_cond.csv,1 0 0 0 0 0 0 0 0 1,2,categoryB,j,,,0,2,2,7,1,9,23,7,,,,,,,,,,,,,,,,,,,f,0,0.4668889580061659,,,,,,,,,,,,,,,,,,,,,,,,,,,,,,,105,001,2021_Sep_27_1459,joplin1,2021.2.3,59.90666554127757,
_train_cond.csv,1 1 1 0 1 1 0 1 1 1,8,categoryA,f,,,0,2,2,7,1,10,24,4,,,,,,,,,,,,,,,,,,,j,0,0.0770936249755323,,,,,,,,,,,,,,,,,,,,,,,,,,,,,,,105,001,2021_Sep_27_1459,joplin1,2021.2.3,59.90666554127757,
_train_cond.csv,0 0 0 1 0 0 1 0 0 0,2,categoryB,j,,,0,2,2,7,1,11,25,11,,,,,,,,,,,,,,,,,,,j,1,0.46227845799876377,,,,,,,,,,,,,,,,,,,,,,,,,,,,,,,105,001,2021_Sep_27_1459,joplin1,2021.2.3,59.90666554127757,
_train_cond.csv,0 0 1 0 1 1 0 1 0 0,4,categoryB,j,,,0,2,2,7,1,12,26,9,,,,,,,,,,,,,,,,,,,f,0,0.1611943329917267,,,,,,,,,,,,,,,,,,,,,,,,,,,,,,,105,001,2021_Sep_27_1459,joplin1,2021.2.3,59.90666554127757,
_train_cond.csv,0 1 0 0 0 0 0 0 1 0,2,categoryB,j,,,0,2,2,7,1,13,27,8,,,,,,,,,,,,,,,,,,,j,1,0.11991658300394192,,,,,,,,,,,,,,,,,,,,,,,,,,,,,,,105,001,2021_Sep_27_1459,joplin1,2021.2.3,59.90666554127757,
_train_cond.csv,1 1 1 0 1 1 0 1 1 1,8,categoryA,f,,,0,2,2,7,2,0,28,4,,,,,,,,,,,,,,,,,,,j,0,0.008535165979992598,,,,,,,,,,,,,,,,,,,,,,,,,,,,,,,105,001,2021_Sep_27_1459,joplin1,2021.2.3,59.90666554127757,
_train_cond.csv,0 0 0 1 0 0 1 0 0 0,2,categoryB,j,,,0,2,2,7,2,1,29,11,,,,,,,,,,,,,,,,,,,j,1,0.27369500003987923,,,,,,,,,,,,,,,,,,,,,,,,,,,,,,,105,001,2021_Sep_27_1459,joplin1,2021.2.3,59.90666554127757,
_train_cond.csv,1 1 1 0 0 0 0 1 1 1,6,categoryA,f,,,0,2,2,7,2,2,30,3,,,,,,,,,,,,,,,,,,,f,1,0.0271367080276832,,,,,,,,,,,,,,,,,,,,,,,,,,,,,,,105,001,2021_Sep_27_1459,joplin1,2021.2.3,59.90666554127757,
_train_cond.csv,0 1 0 0 0 0 0 0 1 0,2,categoryB,j,,,0,2,2,7,2,3,31,8,,,,,,,,,,,,,,,,,,,j,1,0.22375787503551692,,,,,,,,,,,,,,,,,,,,,,,,,,,,,,,105,001,2021_Sep_27_1459,joplin1,2021.2.3,59.90666554127757,
_train_cond.csv,0 0 1 1 1 1 1 1 0 0,6,categoryA,f,,,0,2,2,7,2,4,32,6,,,,,,,,,,,,,,,,,,,f,1,0.33156891696853563,,,,,,,,,,,,,,,,,,,,,,,,,,,,,,,105,001,2021_Sep_27_1459,joplin1,2021.2.3,59.90666554127757,
_train_cond.csv,0 1 1 1 1 1 1 1 1 0,8,categoryA,f,,,0,2,2,7,2,5,33,0,,,,,,,,,,,,,,,,,,,j,0,0.14819654199527577,,,,,,,,,,,,,,,,,,,,,,,,,,,,,,,105,001,2021_Sep_27_1459,joplin1,2021.2.3,59.90666554127757,
_train_cond.csv,0 0 1 0 1 1 0 1 0 0,4,categoryB,j,,,0,2,2,7,2,6,34,9,,,,,,,,,,,,,,,,,,,f,0,0.08356712502427399,,,,,,,,,,,,,,,,,,,,,,,,,,,,,,,105,001,2021_Sep_27_1459,joplin1,2021.2.3,59.90666554127757,
_train_cond.csv,0 0 0 1 1 1 1 0 0 0,4,categoryB,j,,,0,2,2,7,2,7,35,10,,,,,,,,,,,,,,,,,,,f,0,1.2134672919637524,,,,,,,,,,,,,,,,,,,,,,,,,,,,,,,105,001,2021_Sep_27_1459,joplin1,2021.2.3,59.90666554127757,
_train_cond.csv,1 0 0 0 0 0 0 0 0 1,2,categoryB,j,,,0,2,2,7,2,8,36,7,,,,,,,,,,,,,,,,,,,j,1,0.7958943329867907,,,,,,,,,,,,,,,,,,,,,,,,,,,,,,,105,001,2021_Sep_27_1459,joplin1,2021.2.3,59.90666554127757,
_train_cond.csv,1 1 0 0 0 0 0 0 1 1,4,categoryB,j,,,0,2,2,7,2,9,37,13,,,,,,,,,,,,,,,,,,,j,1,0.05777495802612975,,,,,,,,,,,,,,,,,,,,,,,,,,,,,,,105,001,2021_Sep_27_1459,joplin1,2021.2.3,59.90666554127757,
_train_cond.csv,0 0 1 0 0 0 0 1 0 0,2,categoryB,j,,,0,2,2,7,2,10,38,12,,,,,,,,,,,,,,,,,,,j,1,0.08537849999265745,,,,,,,,,,,,,,,,,,,,,,,,,,,,,,,105,001,2021_Sep_27_1459,joplin1,2021.2.3,59.90666554127757,
_train_cond.csv,1 1 0 1 1 1 1 0 1 1,8,categoryA,f,,,0,2,2,7,2,11,39,5,,,,,,,,,,,,,,,,,,,j,0,0.7435439170221798,,,,,,,,,,,,,,,,,,,,,,,,,,,,,,,105,001,2021_Sep_27_1459,joplin1,2021.2.3,59.90666554127757,
_train_cond.csv,1 1 0 1 0 0 1 0 1 1,6,categoryA,f,,,0,2,2,7,2,12,40,2,,,,,,,,,,,,,,,,,,,f,1,0.6073821250465699,,,,,,,,,,,,,,,,,,,,,,,,,,,,,,,105,001,2021_Sep_27_1459,joplin1,2021.2.3,59.90666554127757,
_train_cond.csv,1 0 1 1 1 1 1 1 0 1,8,categoryA,f,,,0,2,2,7,2,13,41,1,,,,,,,,,,,,,,,,,,,f,1,0.1564300829777494,,,,,,,,,,,,,,,,,,,,,,,,,,,,,,,105,001,2021_Sep_27_1459,joplin1,2021.2.3,59.90666554127757,
_train_cond.csv,,,,,,,0,2,2,7,,,,,,,,,,,,,,,,,,,,,,,,,,space,10.68326416698983,,,,,,,,,,,,,,,,,,,,,,,,,,,,,105,001,2021_Sep_27_1459,joplin1,2021.2.3,59.90666554127757,
_train_cond.csv,0 0 1 1 1 1 1 1 0 0,6,categoryA,f,,,0,3,3,1,0,0,0,6,,,,,,,,,,,,,,,,,,,j,0,0.07644412503577769,,,,,,,,,,,,,,,,,,,,,,,,,,,,,,,105,001,2021_Sep_27_1459,joplin1,2021.2.3,59.90666554127757,
_train_cond.csv,1 1 1 0 0 0 0 1 1 1,6,categoryA,f,,,0,3,3,1,0,1,1,3,,,,,,,,,,,,,,,,,,,f,1,0.3023686250089668,,,,,,,,,,,,,,,,,,,,,,,,,,,,,,,105,001,2021_Sep_27_1459,joplin1,2021.2.3,59.90666554127757,
_train_cond.csv,0 1 1 1 1 1 1 1 1 0,8,categoryA,f,,,0,3,3,1,0,2,2,0,,,,,,,,,,,,,,,,,,,f,1,0.8480432500364259,,,,,,,,,,,,,,,,,,,,,,,,,,,,,,,105,001,2021_Sep_27_1459,joplin1,2021.2.3,59.90666554127757,
_train_cond.csv,0 0 1 0 0 0 0 1 0 0,2,categoryB,j,,,0,3,3,1,0,3,3,12,,,,,,,,,,,,,,,,,,,j,1,0.4524337920011021,,,,,,,,,,,,,,,,,,,,,,,,,,,,,,,105,001,2021_Sep_27_1459,joplin1,2021.2.3,59.90666554127757,
_train_cond.csv,1 0 0 0 0 0 0 0 0 1,2,categoryB,j,,,0,3,3,1,0,4,4,7,,,,,,,,,,,,,,,,,,,j,1,0.6473893749644049,,,,,,,,,,,,,,,,,,,,,,,,,,,,,,,105,001,2021_Sep_27_1459,joplin1,2021.2.3,59.90666554127757,
_train_cond.csv,0 1 0 0 0 0 0 0 1 0,2,categoryB,j,,,0,3,3,1,0,5,5,8,,,,,,,,,,,,,,,,,,,f,0,1.06722595798783,,,,,,,,,,,,,,,,,,,,,,,,,,,,,,,105,001,2021_Sep_27_1459,joplin1,2021.2.3,59.90666554127757,
_train_cond.csv,1 1 0 1 1 1 1 0 1 1,8,categoryA,f,,,0,3,3,1,0,6,6,5,,,,,,,,,,,,,,,,,,,f,1,0.4779260419891216,,,,,,,,,,,,,,,,,,,,,,,,,,,,,,,105,001,2021_Sep_27_1459,joplin1,2021.2.3,59.90666554127757,
_train_cond.csv,0 0 0 1 0 0 1 0 0 0,2,categoryB,j,,,0,3,3,1,0,7,7,11,,,,,,,,,,,,,,,,,,,j,1,1.4554388339747675,,,,,,,,,,,,,,,,,,,,,,,,,,,,,,,105,001,2021_Sep_27_1459,joplin1,2021.2.3,59.90666554127757,
_train_cond.csv,1 1 0 1 0 0 1 0 1 1,6,categoryA,f,,,0,3,3,1,0,8,8,2,,,,,,,,,,,,,,,,,,,f,1,0.6741738750133663,,,,,,,,,,,,,,,,,,,,,,,,,,,,,,,105,001,2021_Sep_27_1459,joplin1,2021.2.3,59.90666554127757,
_train_cond.csv,0 0 0 1 1 1 1 0 0 0,4,categoryB,j,,,0,3,3,1,0,9,9,10,,,,,,,,,,,,,,,,,,,f,0,0.5325154580059461,,,,,,,,,,,,,,,,,,,,,,,,,,,,,,,105,001,2021_Sep_27_1459,joplin1,2021.2.3,59.90666554127757,
_train_cond.csv,1 1 0 0 0 0 0 0 1 1,4,categoryB,j,,,0,3,3,1,0,10,10,13,,,,,,,,,,,,,,,,,,,f,0,0.685781207983382,,,,,,,,,,,,,,,,,,,,,,,,,,,,,,,105,001,2021_Sep_27_1459,joplin1,2021.2.3,59.90666554127757,
_train_cond.csv,1 1 1 0 1 1 0 1 1 1,8,categoryA,f,,,0,3,3,1,0,11,11,4,,,,,,,,,,,,,,,,,,,f,1,0.6466753749991767,,,,,,,,,,,,,,,,,,,,,,,,,,,,,,,105,001,2021_Sep_27_1459,joplin1,2021.2.3,59.90666554127757,
_train_cond.csv,0 0 1 0 1 1 0 1 0 0,4,categoryB,j,,,0,3,3,1,0,12,12,9,,,,,,,,,,,,,,,,,,,j,1,1.6181974589708261,,,,,,,,,,,,,,,,,,,,,,,,,,,,,,,105,001,2021_Sep_27_1459,joplin1,2021.2.3,59.90666554127757,
_train_cond.csv,1 0 1 1 1 1 1 1 0 1,8,categoryA,f,,,0,3,3,1,0,13,13,1,,,,,,,,,,,,,,,,,,,f,1,0.15893154096556827,,,,,,,,,,,,,,,,,,,,,,,,,,,,,,,105,001,2021_Sep_27_1459,joplin1,2021.2.3,59.90666554127757,
_train_cond.csv,1 1 1 0 1 1 0 1 1 1,8,categoryA,f,,,0,3,3,1,1,0,14,4,,,,,,,,,,,,,,,,,,,j,0,1.102737957960926,,,,,,,,,,,,,,,,,,,,,,,,,,,,,,,105,001,2021_Sep_27_1459,joplin1,2021.2.3,59.90666554127757,
_train_cond.csv,0 0 1 0 1 1 0 1 0 0,4,categoryB,j,,,0,3,3,1,1,1,15,9,,,,,,,,,,,,,,,,,,,j,1,0.5673269999679178,,,,,,,,,,,,,,,,,,,,,,,,,,,,,,,105,001,2021_Sep_27_1459,joplin1,2021.2.3,59.90666554127757,
_train_cond.csv,0 0 1 1 1 1 1 1 0 0,6,categoryA,f,,,0,3,3,1,1,2,16,6,,,,,,,,,,,,,,,,,,,j,0,0.7181902090087533,,,,,,,,,,,,,,,,,,,,,,,,,,,,,,,105,001,2021_Sep_27_1459,joplin1,2021.2.3,59.90666554127757,
_train_cond.csv,1 1 0 1 0 0 1 0 1 1,6,categoryA,f,,,0,3,3,1,1,3,17,2,,,,,,,,,,,,,,,,,,,f,1,0.32752104196697474,,,,,,,,,,,,,,,,,,,,,,,,,,,,,,,105,001,2021_Sep_27_1459,joplin1,2021.2.3,59.90666554127757,
_train_cond.csv,0 1 1 1 1 1 1 1 1 0,8,categoryA,f,,,0,3,3,1,1,4,18,0,,,,,,,,,,,,,,,,,,,f,1,0.054966208001133054,,,,,,,,,,,,,,,,,,,,,,,,,,,,,,,105,001,2021_Sep_27_1459,joplin1,2021.2.3,59.90666554127757,
_train_cond.csv,1 1 0 1 1 1 1 0 1 1,8,categoryA,f,,,0,3,3,1,1,5,19,5,,,,,,,,,,,,,,,,,,,j,0,0.3219232080155052,,,,,,,,,,,,,,,,,,,,,,,,,,,,,,,105,001,2021_Sep_27_1459,joplin1,2021.2.3,59.90666554127757,
_train_cond.csv,0 0 0 1 0 0 1 0 0 0,2,categoryB,j,,,0,3,3,1,1,6,20,11,,,,,,,,,,,,,,,,,,,j,1,0.13866862503346056,,,,,,,,,,,,,,,,,,,,,,,,,,,,,,,105,001,2021_Sep_27_1459,joplin1,2021.2.3,59.90666554127757,
_train_cond.csv,0 0 1 0 0 0 0 1 0 0,2,categoryB,j,,,0,3,3,1,1,7,21,12,,,,,,,,,,,,,,,,,,,j,1,0.6105703340144828,,,,,,,,,,,,,,,,,,,,,,,,,,,,,,,105,001,2021_Sep_27_1459,joplin1,2021.2.3,59.90666554127757,
_train_cond.csv,1 1 1 0 0 0 0 1 1 1,6,categoryA,f,,,0,3,3,1,1,8,22,3,,,,,,,,,,,,,,,,,,,j,0,1.303786707983818,,,,,,,,,,,,,,,,,,,,,,,,,,,,,,,105,001,2021_Sep_27_1459,joplin1,2021.2.3,59.90666554127757,
_train_cond.csv,0 1 0 0 0 0 0 0 1 0,2,categoryB,j,,,0,3,3,1,1,9,23,8,,,,,,,,,,,,,,,,,,,f,0,0.6645494579570368,,,,,,,,,,,,,,,,,,,,,,,,,,,,,,,105,001,2021_Sep_27_1459,joplin1,2021.2.3,59.90666554127757,
_train_cond.csv,1 0 0 0 0 0 0 0 0 1,2,categoryB,j,,,0,3,3,1,1,10,24,7,,,,,,,,,,,,,,,,,,,j,1,0.5085734589956701,,,,,,,,,,,,,,,,,,,,,,,,,,,,,,,105,001,2021_Sep_27_1459,joplin1,2021.2.3,59.90666554127757,
_train_cond.csv,1 1 0 0 0 0 0 0 1 1,4,categoryB,j,,,0,3,3,1,1,11,25,13,,,,,,,,,,,,,,,,,,,f,0,0.25992287503322586,,,,,,,,,,,,,,,,,,,,,,,,,,,,,,,105,001,2021_Sep_27_1459,joplin1,2021.2.3,59.90666554127757,
_train_cond.csv,1 0 1 1 1 1 1 1 0 1,8,categoryA,f,,,0,3,3,1,1,12,26,1,,,,,,,,,,,,,,,,,,,f,1,0.49434470903361216,,,,,,,,,,,,,,,,,,,,,,,,,,,,,,,105,001,2021_Sep_27_1459,joplin1,2021.2.3,59.90666554127757,
_train_cond.csv,0 0 0 1 1 1 1 0 0 0,4,categoryB,j,,,0,3,3,1,1,13,27,10,,,,,,,,,,,,,,,,,,,j,1,0.4722404589992948,,,,,,,,,,,,,,,,,,,,,,,,,,,,,,,105,001,2021_Sep_27_1459,joplin1,2021.2.3,59.90666554127757,
_train_cond.csv,0 0 1 0 0 0 0 1 0 0,2,categoryB,j,,,0,3,3,1,2,0,28,12,,,,,,,,,,,,,,,,,,,j,1,0.35396995896007866,,,,,,,,,,,,,,,,,,,,,,,,,,,,,,,105,001,2021_Sep_27_1459,joplin1,2021.2.3,59.90666554127757,
_train_cond.csv,0 0 0 1 0 0 1 0 0 0,2,categoryB,j,,,0,3,3,1,2,1,29,11,,,,,,,,,,,,,,,,,,,j,1,0.25790979200974107,,,,,,,,,,,,,,,,,,,,,,,,,,,,,,,105,001,2021_Sep_27_1459,joplin1,2021.2.3,59.90666554127757,
_train_cond.csv,1 1 0 1 1 1 1 0 1 1,8,categoryA,f,,,0,3,3,1,2,2,30,5,,,,,,,,,,,,,,,,,,,f,1,0.4289631249848753,,,,,,,,,,,,,,,,,,,,,,,,,,,,,,,105,001,2021_Sep_27_1459,joplin1,2021.2.3,59.90666554127757,
_train_cond.csv,0 1 1 1 1 1 1 1 1 0,8,categoryA,f,,,0,3,3,1,2,3,31,0,,,,,,,,,,,,,,,,,,,j,0,0.7052341249655001,,,,,,,,,,,,,,,,,,,,,,,,,,,,,,,105,001,2021_Sep_27_1459,joplin1,2021.2.3,59.90666554127757,
_train_cond.csv,1 1 1 0 1 1 0 1 1 1,8,categoryA,f,,,0,3,3,1,2,4,32,4,,,,,,,,,,,,,,,,,,,j,0,2.353828000021167,,,,,,,,,,,,,,,,,,,,,,,,,,,,,,,105,001,2021_Sep_27_1459,joplin1,2021.2.3,59.90666554127757,
_train_cond.csv,0 0 1 0 1 1 0 1 0 0,4,categoryB,j,,,0,3,3,1,2,5,33,9,,,,,,,,,,,,,,,,,,,j,1,0.616670332965441,,,,,,,,,,,,,,,,,,,,,,,,,,,,,,,105,001,2021_Sep_27_1459,joplin1,2021.2.3,59.90666554127757,
_train_cond.csv,1 1 0 1 0 0 1 0 1 1,6,categoryA,f,,,0,3,3,1,2,6,34,2,,,,,,,,,,,,,,,,,,,f,1,0.019392999995034188,,,,,,,,,,,,,,,,,,,,,,,,,,,,,,,105,001,2021_Sep_27_1459,joplin1,2021.2.3,59.90666554127757,
_train_cond.csv,1 0 0 0 0 0 0 0 0 1,2,categoryB,j,,,0,3,3,1,2,7,35,7,,,,,,,,,,,,,,,,,,,j,1,0.8065957500366494,,,,,,,,,,,,,,,,,,,,,,,,,,,,,,,105,001,2021_Sep_27_1459,joplin1,2021.2.3,59.90666554127757,
_train_cond.csv,0 0 0 1 1 1 1 0 0 0,4,categoryB,j,,,0,3,3,1,2,8,36,10,,,,,,,,,,,,,,,,,,,j,1,0.6193067090352997,,,,,,,,,,,,,,,,,,,,,,,,,,,,,,,105,001,2021_Sep_27_1459,joplin1,2021.2.3,59.90666554127757,
_train_cond.csv,0 1 0 0 0 0 0 0 1 0,2,categoryB,j,,,0,3,3,1,2,9,37,8,,,,,,,,,,,,,,,,,,,j,1,0.7273897920385934,,,,,,,,,,,,,,,,,,,,,,,,,,,,,,,105,001,2021_Sep_27_1459,joplin1,2021.2.3,59.90666554127757,
_train_cond.csv,1 0 1 1 1 1 1 1 0 1,8,categoryA,f,,,0,3,3,1,2,10,38,1,,,,,,,,,,,,,,,,,,,f,1,0.433266082953196,,,,,,,,,,,,,,,,,,,,,,,,,,,,,,,105,001,2021_Sep_27_1459,joplin1,2021.2.3,59.90666554127757,
_train_cond.csv,0 0 1 1 1 1 1 1 0 0,6,categoryA,f,,,0,3,3,1,2,11,39,6,,,,,,,,,,,,,,,,,,,j,0,0.5812600839999504,,,,,,,,,,,,,,,,,,,,,,,,,,,,,,,105,001,2021_Sep_27_1459,joplin1,2021.2.3,59.90666554127757,
_train_cond.csv,1 1 0 0 0 0 0 0 1 1,4,categoryB,j,,,0,3,3,1,2,12,40,13,,,,,,,,,,,,,,,,,,,f,0,1.1310656670248136,,,,,,,,,,,,,,,,,,,,,,,,,,,,,,,105,001,2021_Sep_27_1459,joplin1,2021.2.3,59.90666554127757,
_train_cond.csv,1 1 1 0 0 0 0 1 1 1,6,categoryA,f,,,0,3,3,1,2,13,41,3,,,,,,,,,,,,,,,,,,,f,1,0.5149075840017758,,,,,,,,,,,,,,,,,,,,,,,,,,,,,,,105,001,2021_Sep_27_1459,joplin1,2021.2.3,59.90666554127757,
_train_cond.csv,,,,,,,0,3,3,1,,,,,,,,,,,,,,,,,,,,,,,,,,space,15.516050999984145,,,,,,,,,,,,,,,,,,,,,,,,,,,,,105,001,2021_Sep_27_1459,joplin1,2021.2.3,59.90666554127757,
_train_cond.csv,1 1 0 1 0 0 1 0 1 1,6,categoryA,f,,,0,4,4,5,0,0,0,2,,,,,,,,,,,,,,,,,,,f,1,0.7804715830134228,,,,,,,,,,,,,,,,,,,,,,,,,,,,,,,105,001,2021_Sep_27_1459,joplin1,2021.2.3,59.90666554127757,
_train_cond.csv,0 0 1 0 0 0 0 1 0 0,2,categoryB,j,,,0,4,4,5,0,1,1,12,,,,,,,,,,,,,,,,,,,j,1,0.12386791699100286,,,,,,,,,,,,,,,,,,,,,,,,,,,,,,,105,001,2021_Sep_27_1459,joplin1,2021.2.3,59.90666554127757,
_train_cond.csv,0 1 1 1 1 1 1 1 1 0,8,categoryA,f,,,0,4,4,5,0,2,2,0,,,,,,,,,,,,,,,,,,,f,1,0.35532074997900054,,,,,,,,,,,,,,,,,,,,,,,,,,,,,,,105,001,2021_Sep_27_1459,joplin1,2021.2.3,59.90666554127757,
_train_cond.csv,0 0 1 1 1 1 1 1 0 0,6,categoryA,f,,,0,4,4,5,0,3,3,6,,,,,,,,,,,,,,,,,,,j,0,0.25058391701895744,,,,,,,,,,,,,,,,,,,,,,,,,,,,,,,105,001,2021_Sep_27_1459,joplin1,2021.2.3,59.90666554127757,
_train_cond.csv,0 0 0 1 0 0 1 0 0 0,2,categoryB,j,,,0,4,4,5,0,4,4,11,,,,,,,,,,,,,,,,,,,j,1,0.5186832080362365,,,,,,,,,,,,,,,,,,,,,,,,,,,,,,,105,001,2021_Sep_27_1459,joplin1,2021.2.3,59.90666554127757,
_train_cond.csv,1 0 0 0 0 0 0 0 0 1,2,categoryB,j,,,0,4,4,5,0,5,5,7,,,,,,,,,,,,,,,,,,,j,1,0.295137542008888,,,,,,,,,,,,,,,,,,,,,,,,,,,,,,,105,001,2021_Sep_27_1459,joplin1,2021.2.3,59.90666554127757,
_train_cond.csv,0 0 0 1 1 1 1 0 0 0,4,categoryB,j,,,0,4,4,5,0,6,6,10,,,,,,,,,,,,,,,,,,,j,1,0.6975647910148837,,,,,,,,,,,,,,,,,,,,,,,,,,,,,,,105,001,2021_Sep_27_1459,joplin1,2021.2.3,59.90666554127757,
_train_cond.csv,1 1 0 0 0 0 0 0 1 1,4,categoryB,j,,,0,4,4,5,0,7,7,13,,,,,,,,,,,,,,,,,,,f,0,0.7721121670329012,,,,,,,,,,,,,,,,,,,,,,,,,,,,,,,105,001,2021_Sep_27_1459,joplin1,2021.2.3,59.90666554127757,
_train_cond.csv,0 0 1 0 1 1 0 1 0 0,4,categoryB,j,,,0,4,4,5,0,8,8,9,,,,,,,,,,,,,,,,,,,j,1,1.8113186249975115,,,,,,,,,,,,,,,,,,,,,,,,,,,,,,,105,001,2021_Sep_27_1459,joplin1,2021.2.3,59.90666554127757,
_train_cond.csv,1 1 0 1 1 1 1 0 1 1,8,categoryA,f,,,0,4,4,5,0,9,9,5,,,,,,,,,,,,,,,,,,,f,1,0.5113525000051595,,,,,,,,,,,,,,,,,,,,,,,,,,,,,,,105,001,2021_Sep_27_1459,joplin1,2021.2.3,59.90666554127757,
_train_cond.csv,1 1 1 0 0 0 0 1 1 1,6,categoryA,f,,,0,4,4,5,0,10,10,3,,,,,,,,,,,,,,,,,,,f,1,0.464730583014898,,,,,,,,,,,,,,,,,,,,,,,,,,,,,,,105,001,2021_Sep_27_1459,joplin1,2021.2.3,59.90666554127757,
_train_cond.csv,1 1 1 0 1 1 0 1 1 1,8,categoryA,f,,,0,4,4,5,0,11,11,4,,,,,,,,,,,,,,,,,,,f,1,0.9872649590251967,,,,,,,,,,,,,,,,,,,,,,,,,,,,,,,105,001,2021_Sep_27_1459,joplin1,2021.2.3,59.90666554127757,
_train_cond.csv,0 1 0 0 0 0 0 0 1 0,2,categoryB,j,,,0,4,4,5,0,12,12,8,,,,,,,,,,,,,,,,,,,None,0,,,,,,,,,,,,,,,,,,,,,,,,,,,,,,,,105,001,2021_Sep_27_1459,joplin1,2021.2.3,59.90666554127757,
_train_cond.csv,1 0 1 1 1 1 1 1 0 1,8,categoryA,f,,,0,4,4,5,0,13,13,1,,,,,,,,,,,,,,,,,,,f,1,0.5606816670042463,,,,,,,,,,,,,,,,,,,,,,,,,,,,,,,105,001,2021_Sep_27_1459,joplin1,2021.2.3,59.90666554127757,
_train_cond.csv,0 1 0 0 0 0 0 0 1 0,2,categoryB,j,,,0,4,4,5,1,0,14,8,,,,,,,,,,,,,,,,,,,j,1,0.3516331250430085,,,,,,,,,,,,,,,,,,,,,,,,,,,,,,,105,001,2021_Sep_27_1459,joplin1,2021.2.3,59.90666554127757,
_train_cond.csv,1 1 1 0 0 0 0 1 1 1,6,categoryA,f,,,0,4,4,5,1,1,15,3,,,,,,,,,,,,,,,,,,,f,1,1.5985742500051856,,,,,,,,,,,,,,,,,,,,,,,,,,,,,,,105,001,2021_Sep_27_1459,joplin1,2021.2.3,59.90666554127757,
_train_cond.csv,1 1 0 1 1 1 1 0 1 1,8,categoryA,f,,,0,4,4,5,1,2,16,5,,,,,,,,,,,,,,,,,,,j,0,0.9560950830345973,,,,,,,,,,,,,,,,,,,,,,,,,,,,,,,105,001,2021_Sep_27_1459,joplin1,2021.2.3,59.90666554127757,
_train_cond.csv,0 1 1 1 1 1 1 1 1 0,8,categoryA,f,,,0,4,4,5,1,3,17,0,,,,,,,,,,,,,,,,,,,j,0,1.18738650000887,,,,,,,,,,,,,,,,,,,,,,,,,,,,,,,105,001,2021_Sep_27_1459,joplin1,2021.2.3,59.90666554127757,
_train_cond.csv,1 1 1 0 1 1 0 1 1 1,8,categoryA,f,,,0,4,4,5,1,4,18,4,,,,,,,,,,,,,,,,,,,f,1,0.9379985420382582,,,,,,,,,,,,,,,,,,,,,,,,,,,,,,,105,001,2021_Sep_27_1459,joplin1,2021.2.3,59.90666554127757,
_train_cond.csv,1 0 0 0 0 0 0 0 0 1,2,categoryB,j,,,0,4,4,5,1,5,19,7,,,,,,,,,,,,,,,,,,,j,1,1.3852491659927182,,,,,,,,,,,,,,,,,,,,,,,,,,,,,,,105,001,2021_Sep_27_1459,joplin1,2021.2.3,59.90666554127757,
_train_cond.csv,0 0 1 1 1 1 1 1 0 0,6,categoryA,f,,,0,4,4,5,1,6,20,6,,,,,,,,,,,,,,,,,,,j,0,0.5194383750203997,,,,,,,,,,,,,,,,,,,,,,,,,,,,,,,105,001,2021_Sep_27_1459,joplin1,2021.2.3,59.90666554127757,
_train_cond.csv,1 0 1 1 1 1 1 1 0 1,8,categoryA,f,,,0,4,4,5,1,7,21,1,,,,,,,,,,,,,,,,,,,f,1,0.8559163339668885,,,,,,,,,,,,,,,,,,,,,,,,,,,,,,,105,001,2021_Sep_27_1459,joplin1,2021.2.3,59.90666554127757,
_train_cond.csv,0 0 1 0 0 0 0 1 0 0,2,categoryB,j,,,0,4,4,5,1,8,22,12,,,,,,,,,,,,,,,,,,,j,1,0.24914791696937755,,,,,,,,,,,,,,,,,,,,,,,,,,,,,,,105,001,2021_Sep_27_1459,joplin1,2021.2.3,59.90666554127757,
_train_cond.csv,1 1 0 0 0 0 0 0 1 1,4,categoryB,j,,,0,4,4,5,1,9,23,13,,,,,,,,,,,,,,,,,,,j,1,1.5004923330270685,,,,,,,,,,,,,,,,,,,,,,,,,,,,,,,105,001,2021_Sep_27_1459,joplin1,2021.2.3,59.90666554127757,
_train_cond.csv,0 0 1 0 1 1 0 1 0 0,4,categoryB,j,,,0,4,4,5,1,10,24,9,,,,,,,,,,,,,,,,,,,j,1,1.6222930829972029,,,,,,,,,,,,,,,,,,,,,,,,,,,,,,,105,001,2021_Sep_27_1459,joplin1,2021.2.3,59.90666554127757,
_train_cond.csv,1 1 0 1 0 0 1 0 1 1,6,categoryA,f,,,0,4,4,5,1,11,25,2,,,,,,,,,,,,,,,,,,,j,0,1.4766397090279497,,,,,,,,,,,,,,,,,,,,,,,,,,,,,,,105,001,2021_Sep_27_1459,joplin1,2021.2.3,59.90666554127757,
_train_cond.csv,0 0 0 1 0 0 1 0 0 0,2,categoryB,j,,,0,4,4,5,1,12,26,11,,,,,,,,,,,,,,,,,,,j,1,0.565900249988772,,,,,,,,,,,,,,,,,,,,,,,,,,,,,,,105,001,2021_Sep_27_1459,joplin1,2021.2.3,59.90666554127757,
_train_cond.csv,0 0 0 1 1 1 1 0 0 0,4,categoryB,j,,,0,4,4,5,1,13,27,10,,,,,,,,,,,,,,,,,,,j,1,1.6847088749636896,,,,,,,,,,,,,,,,,,,,,,,,,,,,,,,105,001,2021_Sep_27_1459,joplin1,2021.2.3,59.90666554127757,
_train_cond.csv,0 0 1 0 1 1 0 1 0 0,4,categoryB,j,,,0,4,4,5,2,0,28,9,,,,,,,,,,,,,,,,,,,j,1,1.1346687090117484,,,,,,,,,,,,,,,,,,,,,,,,,,,,,,,105,001,2021_Sep_27_1459,joplin1,2021.2.3,59.90666554127757,
_train_cond.csv,1 0 0 0 0 0 0 0 0 1,2,categoryB,j,,,0,4,4,5,2,1,29,7,,,,,,,,,,,,,,,,,,,j,1,1.2467028750106692,,,,,,,,,,,,,,,,,,,,,,,,,,,,,,,105,001,2021_Sep_27_1459,joplin1,2021.2.3,59.90666554127757,
_train_cond.csv,1 1 0 1 1 1 1 0 1 1,8,categoryA,f,,,0,4,4,5,2,2,30,5,,,,,,,,,,,,,,,,,,,f,1,2.7306329169659875,,,,,,,,,,,,,,,,,,,,,,,,,,,,,,,105,001,2021_Sep_27_1459,joplin1,2021.2.3,59.90666554127757,
_train_cond.csv,1 1 1 0 0 0 0 1 1 1,6,categoryA,f,,,0,4,4,5,2,3,31,3,,,,,,,,,,,,,,,,,,,f,1,1.250501208996866,,,,,,,,,,,,,,,,,,,,,,,,,,,,,,,105,001,2021_Sep_27_1459,joplin1,2021.2.3,59.90666554127757,
_train_cond.csv,1 0 1 1 1 1 1 1 0 1,8,categoryA,f,,,0,4,4,5,2,4,32,1,,,,,,,,,,,,,,,,,,,f,1,0.6546166250482202,,,,,,,,,,,,,,,,,,,,,,,,,,,,,,,105,001,2021_Sep_27_1459,joplin1,2021.2.3,59.90666554127757,
_train_cond.csv,0 0 1 1 1 1 1 1 0 0,6,categoryA,f,,,0,4,4,5,2,5,33,6,,,,,,,,,,,,,,,,,,,j,0,0.6886777079780586,,,,,,,,,,,,,,,,,,,,,,,,,,,,,,,105,001,2021_Sep_27_1459,joplin1,2021.2.3,59.90666554127757,
_train_cond.csv,1 1 0 1 0 0 1 0 1 1,6,categoryA,f,,,0,4,4,5,2,6,34,2,,,,,,,,,,,,,,,,,,,j,0,0.7546237080241553,,,,,,,,,,,,,,,,,,,,,,,,,,,,,,,105,001,2021_Sep_27_1459,joplin1,2021.2.3,59.90666554127757,
_train_cond.csv,0 0 1 0 0 0 0 1 0 0,2,categoryB,j,,,0,4,4,5,2,7,35,12,,,,,,,,,,,,,,,,,,,j,1,0.3707873749663122,,,,,,,,,,,,,,,,,,,,,,,,,,,,,,,105,001,2021_Sep_27_1459,joplin1,2021.2.3,59.90666554127757,
_train_cond.csv,0 0 0 1 1 1 1 0 0 0,4,categoryB,j,,,0,4,4,5,2,8,36,10,,,,,,,,,,,,,,,,,,,j,1,0.4797961669974029,,,,,,,,,,,,,,,,,,,,,,,,,,,,,,,105,001,2021_Sep_27_1459,joplin1,2021.2.3,59.90666554127757,
_train_cond.csv,1 1 1 0 1 1 0 1 1 1,8,categoryA,f,,,0,4,4,5,2,9,37,4,,,,,,,,,,,,,,,,,,,f,1,0.25057145894970745,,,,,,,,,,,,,,,,,,,,,,,,,,,,,,,105,001,2021_Sep_27_1459,joplin1,2021.2.3,59.90666554127757,
_train_cond.csv,0 0 0 1 0 0 1 0 0 0,2,categoryB,j,,,0,4,4,5,2,10,38,11,,,,,,,,,,,,,,,,,,,j,1,0.4305781669681892,,,,,,,,,,,,,,,,,,,,,,,,,,,,,,,105,001,2021_Sep_27_1459,joplin1,2021.2.3,59.90666554127757,
_train_cond.csv,0 1 1 1 1 1 1 1 1 0,8,categoryA,f,,,0,4,4,5,2,11,39,0,,,,,,,,,,,,,,,,,,,f,1,0.85000737500377,,,,,,,,,,,,,,,,,,,,,,,,,,,,,,,105,001,2021_Sep_27_1459,joplin1,2021.2.3,59.90666554127757,
_train_cond.csv,0 1 0 0 0 0 0 0 1 0,2,categoryB,j,,,0,4,4,5,2,12,40,8,,,,,,,,,,,,,,,,,,,j,1,1.2130667500314303,,,,,,,,,,,,,,,,,,,,,,,,,,,,,,,105,001,2021_Sep_27_1459,joplin1,2021.2.3,59.90666554127757,
_train_cond.csv,1 1 0 0 0 0 0 0 1 1,4,categoryB,j,,,0,4,4,5,2,13,41,13,,,,,,,,,,,,,,,,,,,j,1,0.8733268749783747,,,,,,,,,,,,,,,,,,,,,,,,,,,,,,,105,001,2021_Sep_27_1459,joplin1,2021.2.3,59.90666554127757,
_train_cond.csv,,,,,,,0,4,4,5,,,,,,,,,,,,,,,,,,,,,,,,,,space,9.924517249979544,,,,,,,,,,,,,,,,,,,,,,,,,,,,,105,001,2021_Sep_27_1459,joplin1,2021.2.3,59.90666554127757,
_train_cond.csv,1 1 0 1 1 1 1 0 1 1,8,categoryA,f,,,0,5,5,4,0,0,0,5,,,,,,,,,,,,,,,,,,,f,1,1.1726187080494128,,,,,,,,,,,,,,,,,,,,,,,,,,,,,,,105,001,2021_Sep_27_1459,joplin1,2021.2.3,59.90666554127757,
_train_cond.csv,0 0 1 0 0 0 0 1 0 0,2,categoryB,j,,,0,5,5,4,0,1,1,12,,,,,,,,,,,,,,,,,,,j,1,0.7215857499977574,,,,,,,,,,,,,,,,,,,,,,,,,,,,,,,105,001,2021_Sep_27_1459,joplin1,2021.2.3,59.90666554127757,
_train_cond.csv,0 1 0 0 0 0 0 0 1 0,2,categoryB,j,,,0,5,5,4,0,2,2,8,,,,,,,,,,,,,,,,,,,j,1,0.5122757499921136,,,,,,,,,,,,,,,,,,,,,,,,,,,,,,,105,001,2021_Sep_27_1459,joplin1,2021.2.3,59.90666554127757,
_train_cond.csv,0 0 1 0 1 1 0 1 0 0,4,categoryB,j,,,0,5,5,4,0,3,3,9,,,,,,,,,,,,,,,,,,,j,1,1.4258472910150886,,,,,,,,,,,,,,,,,,,,,,,,,,,,,,,105,001,2021_Sep_27_1459,joplin1,2021.2.3,59.90666554127757,
_train_cond.csv,1 1 0 1 0 0 1 0 1 1,6,categoryA,f,,,0,5,5,4,0,4,4,2,,,,,,,,,,,,,,,,,,,j,0,1.4147540000267327,,,,,,,,,,,,,,,,,,,,,,,,,,,,,,,105,001,2021_Sep_27_1459,joplin1,2021.2.3,59.90666554127757,
_train_cond.csv,0 1 1 1 1 1 1 1 1 0,8,categoryA,f,,,0,5,5,4,0,5,5,0,,,,,,,,,,,,,,,,,,,f,1,0.8745599589892663,,,,,,,,,,,,,,,,,,,,,,,,,,,,,,,105,001,2021_Sep_27_1459,joplin1,2021.2.3,59.90666554127757,
_train_cond.csv,1 0 1 1 1 1 1 1 0 1,8,categoryA,f,,,0,5,5,4,0,6,6,1,,,,,,,,,,,,,,,,,,,f,1,1.1894293339573778,,,,,,,,,,,,,,,,,,,,,,,,,,,,,,,105,001,2021_Sep_27_1459,joplin1,2021.2.3,59.90666554127757,
_train_cond.csv,0 0 0 1 0 0 1 0 0 0,2,categoryB,j,,,0,5,5,4,0,7,7,11,,,,,,,,,,,,,,,,,,,j,1,1.1250939579913393,,,,,,,,,,,,,,,,,,,,,,,,,,,,,,,105,001,2021_Sep_27_1459,joplin1,2021.2.3,59.90666554127757,
_train_cond.csv,0 0 0 1 1 1 1 0 0 0,4,categoryB,j,,,0,5,5,4,0,8,8,10,,,,,,,,,,,,,,,,,,,j,1,0.8450898340088315,,,,,,,,,,,,,,,,,,,,,,,,,,,,,,,105,001,2021_Sep_27_1459,joplin1,2021.2.3,59.90666554127757,
_train_cond.csv,1 1 1 0 0 0 0 1 1 1,6,categoryA,f,,,0,5,5,4,0,9,9,3,,,,,,,,,,,,,,,,,,,f,1,0.8963988749892451,,,,,,,,,,,,,,,,,,,,,,,,,,,,,,,105,001,2021_Sep_27_1459,joplin1,2021.2.3,59.90666554127757,
_train_cond.csv,1 1 1 0 1 1 0 1 1 1,8,categoryA,f,,,0,5,5,4,0,10,10,4,,,,,,,,,,,,,,,,,,,f,1,0.5866102079744451,,,,,,,,,,,,,,,,,,,,,,,,,,,,,,,105,001,2021_Sep_27_1459,joplin1,2021.2.3,59.90666554127757,
_train_cond.csv,1 1 0 0 0 0 0 0 1 1,4,categoryB,j,,,0,5,5,4,0,11,11,13,,,,,,,,,,,,,,,,,,,j,1,1.4790759580209851,,,,,,,,,,,,,,,,,,,,,,,,,,,,,,,105,001,2021_Sep_27_1459,joplin1,2021.2.3,59.90666554127757,
_train_cond.csv,0 0 1 1 1 1 1 1 0 0,6,categoryA,f,,,0,5,5,4,0,12,12,6,,,,,,,,,,,,,,,,,,,j,0,1.8326569169876166,,,,,,,,,,,,,,,,,,,,,,,,,,,,,,,105,001,2021_Sep_27_1459,joplin1,2021.2.3,59.90666554127757,
_train_cond.csv,1 0 0 0 0 0 0 0 0 1,2,categoryB,j,,,0,5,5,4,0,13,13,7,,,,,,,,,,,,,,,,,,,j,1,1.821139540988952,,,,,,,,,,,,,,,,,,,,,,,,,,,,,,,105,001,2021_Sep_27_1459,joplin1,2021.2.3,59.90666554127757,
_train_cond.csv,0 0 0 1 0 0 1 0 0 0,2,categoryB,j,,,0,5,5,4,1,0,14,11,,,,,,,,,,,,,,,,,,,j,1,0.7537557079922408,,,,,,,,,,,,,,,,,,,,,,,,,,,,,,,105,001,2021_Sep_27_1459,joplin1,2021.2.3,59.90666554127757,
_train_cond.csv,1 1 0 1 1 1 1 0 1 1,8,categoryA,f,,,0,5,5,4,1,1,15,5,,,,,,,,,,,,,,,,,,,f,1,0.2813096250174567,,,,,,,,,,,,,,,,,,,,,,,,,,,,,,,105,001,2021_Sep_27_1459,joplin1,2021.2.3,59.90666554127757,
_train_cond.csv,0 0 1 0 1 1 0 1 0 0,4,categoryB,j,,,0,5,5,4,1,2,16,9,,,,,,,,,,,,,,,,,,,j,1,0.6277212919667363,,,,,,,,,,,,,,,,,,,,,,,,,,,,,,,105,001,2021_Sep_27_1459,joplin1,2021.2.3,59.90666554127757,
_train_cond.csv,1 1 0 0 0 0 0 0 1 1,4,categoryB,j,,,0,5,5,4,1,3,17,13,,,,,,,,,,,,,,,,,,,j,1,0.5677098750020377,,,,,,,,,,,,,,,,,,,,,,,,,,,,,,,105,001,2021_Sep_27_1459,joplin1,2021.2.3,59.90666554127757,
_train_cond.csv,0 1 0 0 0 0 0 0 1 0,2,categoryB,j,,,0,5,5,4,1,4,18,8,,,,,,,,,,,,,,,,,,,j,1,0.5985632080119103,,,,,,,,,,,,,,,,,,,,,,,,,,,,,,,105,001,2021_Sep_27_1459,joplin1,2021.2.3,59.90666554127757,
_train_cond.csv,1 1 1 0 1 1 0 1 1 1,8,categoryA,f,,,0,5,5,4,1,5,19,4,,,,,,,,,,,,,,,,,,,f,1,0.6920141660375521,,,,,,,,,,,,,,,,,,,,,,,,,,,,,,,105,001,2021_Sep_27_1459,joplin1,2021.2.3,59.90666554127757,
_train_cond.csv,0 0 0 1 1 1 1 0 0 0,4,categoryB,j,,,0,5,5,4,1,6,20,10,,,,,,,,,,,,,,,,,,,j,1,0.5489571249927394,,,,,,,,,,,,,,,,,,,,,,,,,,,,,,,105,001,2021_Sep_27_1459,joplin1,2021.2.3,59.90666554127757,
_train_cond.csv,0 0 1 1 1 1 1 1 0 0,6,categoryA,f,,,0,5,5,4,1,7,21,6,,,,,,,,,,,,,,,,,,,f,1,2.411752708023414,,,,,,,,,,,,,,,,,,,,,,,,,,,,,,,105,001,2021_Sep_27_1459,joplin1,2021.2.3,59.90666554127757,
_train_cond.csv,0 1 1 1 1 1 1 1 1 0,8,categoryA,f,,,0,5,5,4,1,8,22,0,,,,,,,,,,,,,,,,,,,f,1,2.0412387500400655,,,,,,,,,,,,,,,,,,,,,,,,,,,,,,,105,001,2021_Sep_27_1459,joplin1,2021.2.3,59.90666554127757,
_train_cond.csv,1 1 1 0 0 0 0 1 1 1,6,categoryA,f,,,0,5,5,4,1,9,23,3,,,,,,,,,,,,,,,,,,,f,1,1.437010666995775,,,,,,,,,,,,,,,,,,,,,,,,,,,,,,,105,001,2021_Sep_27_1459,joplin1,2021.2.3,59.90666554127757,
_train_cond.csv,1 1 0 1 0 0 1 0 1 1,6,categoryA,f,,,0,5,5,4,1,10,24,2,,,,,,,,,,,,,,,,,,,j,0,0.9302337089902721,,,,,,,,,,,,,,,,,,,,,,,,,,,,,,,105,001,2021_Sep_27_1459,joplin1,2021.2.3,59.90666554127757,
_train_cond.csv,1 0 0 0 0 0 0 0 0 1,2,categoryB,j,,,0,5,5,4,1,11,25,7,,,,,,,,,,,,,,,,,,,j,1,0.7788217500201426,,,,,,,,,,,,,,,,,,,,,,,,,,,,,,,105,001,2021_Sep_27_1459,joplin1,2021.2.3,59.90666554127757,
_train_cond.csv,1 0 1 1 1 1 1 1 0 1,8,categoryA,f,,,0,5,5,4,1,12,26,1,,,,,,,,,,,,,,,,,,,f,1,1.85651145799784,,,,,,,,,,,,,,,,,,,,,,,,,,,,,,,105,001,2021_Sep_27_1459,joplin1,2021.2.3,59.90666554127757,
_train_cond.csv,0 0 1 0 0 0 0 1 0 0,2,categoryB,j,,,0,5,5,4,1,13,27,12,,,,,,,,,,,,,,,,,,,j,1,0.21099483297439292,,,,,,,,,,,,,,,,,,,,,,,,,,,,,,,105,001,2021_Sep_27_1459,joplin1,2021.2.3,59.90666554127757,
_train_cond.csv,0 0 1 0 1 1 0 1 0 0,4,categoryB,j,,,0,5,5,4,2,0,28,9,,,,,,,,,,,,,,,,,,,j,1,0.29589529102668166,,,,,,,,,,,,,,,,,,,,,,,,,,,,,,,105,001,2021_Sep_27_1459,joplin1,2021.2.3,59.90666554127757,
_train_cond.csv,0 0 1 1 1 1 1 1 0 0,6,categoryA,f,,,0,5,5,4,2,1,29,6,,,,,,,,,,,,,,,,,,,f,1,0.42551954195369035,,,,,,,,,,,,,,,,,,,,,,,,,,,,,,,105,001,2021_Sep_27_1459,joplin1,2021.2.3,59.90666554127757,
_train_cond.csv,1 1 1 0 0 0 0 1 1 1,6,categoryA,f,,,0,5,5,4,2,2,30,3,,,,,,,,,,,,,,,,,,,f,1,0.6602372080087662,,,,,,,,,,,,,,,,,,,,,,,,,,,,,,,105,001,2021_Sep_27_1459,joplin1,2021.2.3,59.90666554127757,
_train_cond.csv,0 0 1 0 0 0 0 1 0 0,2,categoryB,j,,,0,5,5,4,2,3,31,12,,,,,,,,,,,,,,,,,,,j,1,0.695665166946128,,,,,,,,,,,,,,,,,,,,,,,,,,,,,,,105,001,2021_Sep_27_1459,joplin1,2021.2.3,59.90666554127757,
_train_cond.csv,0 1 1 1 1 1 1 1 1 0,8,categoryA,f,,,0,5,5,4,2,4,32,0,,,,,,,,,,,,,,,,,,,f,1,0.2571225829888135,,,,,,,,,,,,,,,,,,,,,,,,,,,,,,,105,001,2021_Sep_27_1459,joplin1,2021.2.3,59.90666554127757,
_train_cond.csv,0 1 0 0 0 0 0 0 1 0,2,categoryB,j,,,0,5,5,4,2,5,33,8,,,,,,,,,,,,,,,,,,,j,1,0.33189912501256913,,,,,,,,,,,,,,,,,,,,,,,,,,,,,,,105,001,2021_Sep_27_1459,joplin1,2021.2.3,59.90666554127757,
_train_cond.csv,1 0 0 0 0 0 0 0 0 1,2,categoryB,j,,,0,5,5,4,2,6,34,7,,,,,,,,,,,,,,,,,,,j,1,0.5317773750284687,,,,,,,,,,,,,,,,,,,,,,,,,,,,,,,105,001,2021_Sep_27_1459,joplin1,2021.2.3,59.90666554127757,
_train_cond.csv,1 1 0 0 0 0 0 0 1 1,4,categoryB,j,,,0,5,5,4,2,7,35,13,,,,,,,,,,,,,,,,,,,j,1,0.452837000018917,,,,,,,,,,,,,,,,,,,,,,,,,,,,,,,105,001,2021_Sep_27_1459,joplin1,2021.2.3,59.90666554127757,
_train_cond.csv,1 1 1 0 1 1 0 1 1 1,8,categoryA,f,,,0,5,5,4,2,8,36,4,,,,,,,,,,,,,,,,,,,f,1,0.6638257920276374,,,,,,,,,,,,,,,,,,,,,,,,,,,,,,,105,001,2021_Sep_27_1459,joplin1,2021.2.3,59.90666554127757,
_train_cond.csv,0 0 0 1 1 1 1 0 0 0,4,categoryB,j,,,0,5,5,4,2,9,37,10,,,,,,,,,,,,,,,,,,,f,0,1.0745891659753397,,,,,,,,,,,,,,,,,,,,,,,,,,,,,,,105,001,2021_Sep_27_1459,joplin1,2021.2.3,59.90666554127757,
_train_cond.csv,0 0 0 1 0 0 1 0 0 0,2,categoryB,j,,,0,5,5,4,2,10,38,11,,,,,,,,,,,,,,,,,,,j,1,1.2693550830008462,,,,,,,,,,,,,,,,,,,,,,,,,,,,,,,105,001,2021_Sep_27_1459,joplin1,2021.2.3,59.90666554127757,
_train_cond.csv,1 0 1 1 1 1 1 1 0 1,8,categoryA,f,,,0,5,5,4,2,11,39,1,,,,,,,,,,,,,,,,,,,f,1,1.719587416970171,,,,,,,,,,,,,,,,,,,,,,,,,,,,,,,105,001,2021_Sep_27_1459,joplin1,2021.2.3,59.90666554127757,
_train_cond.csv,1 1 0 1 1 1 1 0 1 1,8,categoryA,f,,,0,5,5,4,2,12,40,5,,,,,,,,,,,,,,,,,,,f,1,0.9598216660087928,,,,,,,,,,,,,,,,,,,,,,,,,,,,,,,105,001,2021_Sep_27_1459,joplin1,2021.2.3,59.90666554127757,
_train_cond.csv,1 1 0 1 0 0 1 0 1 1,6,categoryA,f,,,0,5,5,4,2,13,41,2,,,,,,,,,,,,,,,,,,,j,0,1.1676579999621026,,,,,,,,,,,,,,,,,,,,,,,,,,,,,,,105,001,2021_Sep_27_1459,joplin1,2021.2.3,59.90666554127757,
_train_cond.csv,,,,,,,0,5,5,4,,,,,,,,,,,,,,,,,,,,,,,,,,space,13.687454541039187,,,,,,,,,,,,,,,,,,,,,,,,,,,,,105,001,2021_Sep_27_1459,joplin1,2021.2.3,59.90666554127757,
_train_cond.csv,0 0 1 0 0 0 0 1 0 0,2,categoryB,j,,,0,6,6,0,0,0,0,12,,,,,,,,,,,,,,,,,,,j,1,0.17522554198512807,,,,,,,,,,,,,,,,,,,,,,,,,,,,,,,105,001,2021_Sep_27_1459,joplin1,2021.2.3,59.90666554127757,
_train_cond.csv,1 1 0 0 0 0 0 0 1 1,4,categoryB,j,,,0,6,6,0,0,1,1,13,,,,,,,,,,,,,,,,,,,j,1,0.6853068330092356,,,,,,,,,,,,,,,,,,,,,,,,,,,,,,,105,001,2021_Sep_27_1459,joplin1,2021.2.3,59.90666554127757,
_train_cond.csv,0 0 1 0 1 1 0 1 0 0,4,categoryB,j,,,0,6,6,0,0,2,2,9,,,,,,,,,,,,,,,,,,,j,1,0.8307041670195758,,,,,,,,,,,,,,,,,,,,,,,,,,,,,,,105,001,2021_Sep_27_1459,joplin1,2021.2.3,59.90666554127757,
_train_cond.csv,0 1 0 0 0 0 0 0 1 0,2,categoryB,j,,,0,6,6,0,0,3,3,8,,,,,,,,,,,,,,,,,,,j,1,0.8935561249963939,,,,,,,,,,,,,,,,,,,,,,,,,,,,,,,105,001,2021_Sep_27_1459,joplin1,2021.2.3,59.90666554127757,
_train_cond.csv,0 1 1 1 1 1 1 1 1 0,8,categoryA,f,,,0,6,6,0,0,4,4,0,,,,,,,,,,,,,,,,,,,f,1,0.19731150002917275,,,,,,,,,,,,,,,,,,,,,,,,,,,,,,,105,001,2021_Sep_27_1459,joplin1,2021.2.3,59.90666554127757,
_train_cond.csv,0 0 0 1 1 1 1 0 0 0,4,categoryB,j,,,0,6,6,0,0,5,5,10,,,,,,,,,,,,,,,,,,,j,1,0.8906584579963237,,,,,,,,,,,,,,,,,,,,,,,,,,,,,,,105,001,2021_Sep_27_1459,joplin1,2021.2.3,59.90666554127757,
_train_cond.csv,1 0 1 1 1 1 1 1 0 1,8,categoryA,f,,,0,6,6,0,0,6,6,1,,,,,,,,,,,,,,,,,,,f,1,1.0046307920129038,,,,,,,,,,,,,,,,,,,,,,,,,,,,,,,105,001,2021_Sep_27_1459,joplin1,2021.2.3,59.90666554127757,
_train_cond.csv,1 1 0 1 1 1 1 0 1 1,8,categoryA,f,,,0,6,6,0,0,7,7,5,,,,,,,,,,,,,,,,,,,f,1,2.136632166977506,,,,,,,,,,,,,,,,,,,,,,,,,,,,,,,105,001,2021_Sep_27_1459,joplin1,2021.2.3,59.90666554127757,
_train_cond.csv,1 1 1 0 1 1 0 1 1 1,8,categoryA,f,,,0,6,6,0,0,8,8,4,,,,,,,,,,,,,,,,,,,j,0,0.7130342079908587,,,,,,,,,,,,,,,,,,,,,,,,,,,,,,,105,001,2021_Sep_27_1459,joplin1,2021.2.3,59.90666554127757,
_train_cond.csv,0 0 0 1 0 0 1 0 0 0,2,categoryB,j,,,0,6,6,0,0,9,9,11,,,,,,,,,,,,,,,,,,,j,1,0.07477866602130234,,,,,,,,,,,,,,,,,,,,,,,,,,,,,,,105,001,2021_Sep_27_1459,joplin1,2021.2.3,59.90666554127757,
_train_cond.csv,1 0 0 0 0 0 0 0 0 1,2,categoryB,j,,,0,6,6,0,0,10,10,7,,,,,,,,,,,,,,,,,,,j,1,0.41342887497739866,,,,,,,,,,,,,,,,,,,,,,,,,,,,,,,105,001,2021_Sep_27_1459,joplin1,2021.2.3,59.90666554127757,
_train_cond.csv,0 0 1 1 1 1 1 1 0 0,6,categoryA,f,,,0,6,6,0,0,11,11,6,,,,,,,,,,,,,,,,,,,j,0,0.9465527500142343,,,,,,,,,,,,,,,,,,,,,,,,,,,,,,,105,001,2021_Sep_27_1459,joplin1,2021.2.3,59.90666554127757,
_train_cond.csv,1 1 1 0 0 0 0 1 1 1,6,categoryA,f,,,0,6,6,0,0,12,12,3,,,,,,,,,,,,,,,,,,,f,1,0.7222464170190506,,,,,,,,,,,,,,,,,,,,,,,,,,,,,,,105,001,2021_Sep_27_1459,joplin1,2021.2.3,59.90666554127757,
_train_cond.csv,1 1 0 1 0 0 1 0 1 1,6,categoryA,f,,,0,6,6,0,0,13,13,2,,,,,,,,,,,,,,,,,,,f,1,1.4104179170099087,,,,,,,,,,,,,,,,,,,,,,,,,,,,,,,105,001,2021_Sep_27_1459,joplin1,2021.2.3,59.90666554127757,
_train_cond.csv,1 1 0 0 0 0 0 0 1 1,4,categoryB,j,,,0,6,6,0,1,0,14,13,,,,,,,,,,,,,,,,,,,j,1,0.819514541013632,,,,,,,,,,,,,,,,,,,,,,,,,,,,,,,105,001,2021_Sep_27_1459,joplin1,2021.2.3,59.90666554127757,
_train_cond.csv,0 0 1 0 0 0 0 1 0 0,2,categoryB,j,,,0,6,6,0,1,1,15,12,,,,,,,,,,,,,,,,,,,j,1,0.4964234579820186,,,,,,,,,,,,,,,,,,,,,,,,,,,,,,,105,001,2021_Sep_27_1459,joplin1,2021.2.3,59.90666554127757,
_train_cond.csv,1 1 1 0 1 1 0 1 1 1,8,categoryA,f,,,0,6,6,0,1,2,16,4,,,,,,,,,,,,,,,,,,,f,1,0.48187262495048344,,,,,,,,,,,,,,,,,,,,,,,,,,,,,,,105,001,2021_Sep_27_1459,joplin1,2021.2.3,59.90666554127757,
_train_cond.csv,0 0 0 1 0 0 1 0 0 0,2,categoryB,j,,,0,6,6,0,1,3,17,11,,,,,,,,,,,,,,,,,,,j,1,0.12334158300654963,,,,,,,,,,,,,,,,,,,,,,,,,,,,,,,105,001,2021_Sep_27_1459,joplin1,2021.2.3,59.90666554127757,
_train_cond.csv,1 0 0 0 0 0 0 0 0 1,2,categoryB,j,,,0,6,6,0,1,4,18,7,,,,,,,,,,,,,,,,,,,j,1,0.29055270802928135,,,,,,,,,,,,,,,,,,,,,,,,,,,,,,,105,001,2021_Sep_27_1459,joplin1,2021.2.3,59.90666554127757,
_train_cond.csv,0 0 1 0 1 1 0 1 0 0,4,categoryB,j,,,0,6,6,0,1,5,19,9,,,,,,,,,,,,,,,,,,,j,1,0.8922046669758856,,,,,,,,,,,,,,,,,,,,,,,,,,,,,,,105,001,2021_Sep_27_1459,joplin1,2021.2.3,59.90666554127757,
_train_cond.csv,1 1 0 1 1 1 1 0 1 1,8,categoryA,f,,,0,6,6,0,1,6,20,5,,,,,,,,,,,,,,,,,,,f,1,0.8392867079819553,,,,,,,,,,,,,,,,,,,,,,,,,,,,,,,105,001,2021_Sep_27_1459,joplin1,2021.2.3,59.90666554127757,
_train_cond.csv,0 0 0 1 1 1 1 0 0 0,4,categoryB,j,,,0,6,6,0,1,7,21,10,,,,,,,,,,,,,,,,,,,j,1,1.3296067499904893,,,,,,,,,,,,,,,,,,,,,,,,,,,,,,,105,001,2021_Sep_27_1459,joplin1,2021.2.3,59.90666554127757,
_train_cond.csv,0 1 0 0 0 0 0 0 1 0,2,categoryB,j,,,0,6,6,0,1,8,22,8,,,,,,,,,,,,,,,,,,,j,1,0.8094471250078641,,,,,,,,,,,,,,,,,,,,,,,,,,,,,,,105,001,2021_Sep_27_1459,joplin1,2021.2.3,59.90666554127757,
_train_cond.csv,1 1 0 1 0 0 1 0 1 1,6,categoryA,f,,,0,6,6,0,1,9,23,2,,,,,,,,,,,,,,,,,,,f,1,1.1428222499671392,,,,,,,,,,,,,,,,,,,,,,,,,,,,,,,105,001,2021_Sep_27_1459,joplin1,2021.2.3,59.90666554127757,
_train_cond.csv,0 0 1 1 1 1 1 1 0 0,6,categoryA,f,,,0,6,6,0,1,10,24,6,,,,,,,,,,,,,,,,,,,j,0,1.8140812909696251,,,,,,,,,,,,,,,,,,,,,,,,,,,,,,,105,001,2021_Sep_27_1459,joplin1,2021.2.3,59.90666554127757,
_train_cond.csv,1 0 1 1 1 1 1 1 0 1,8,categoryA,f,,,0,6,6,0,1,11,25,1,,,,,,,,,,,,,,,,,,,f,1,0.5952304159873165,,,,,,,,,,,,,,,,,,,,,,,,,,,,,,,105,001,2021_Sep_27_1459,joplin1,2021.2.3,59.90666554127757,
_train_cond.csv,1 1 1 0 0 0 0 1 1 1,6,categoryA,f,,,0,6,6,0,1,12,26,3,,,,,,,,,,,,,,,,,,,f,1,0.4014623749535531,,,,,,,,,,,,,,,,,,,,,,,,,,,,,,,105,001,2021_Sep_27_1459,joplin1,2021.2.3,59.90666554127757,
_train_cond.csv,0 1 1 1 1 1 1 1 1 0,8,categoryA,f,,,0,6,6,0,1,13,27,0,,,,,,,,,,,,,,,,,,,f,1,1.5983948340290226,,,,,,,,,,,,,,,,,,,,,,,,,,,,,,,105,001,2021_Sep_27_1459,joplin1,2021.2.3,59.90666554127757,
_train_cond.csv,1 1 0 1 0 0 1 0 1 1,6,categoryA,f,,,0,6,6,0,2,0,28,2,,,,,,,,,,,,,,,,,,,f,1,1.3408345420029946,,,,,,,,,,,,,,,,,,,,,,,,,,,,,,,105,001,2021_Sep_27_1459,joplin1,2021.2.3,59.90666554127757,
_train_cond.csv,1 1 0 1 1 1 1 0 1 1,8,categoryA,f,,,0,6,6,0,2,1,29,5,,,,,,,,,,,,,,,,,,,f,1,0.829975624976214,,,,,,,,,,,,,,,,,,,,,,,,,,,,,,,105,001,2021_Sep_27_1459,joplin1,2021.2.3,59.90666554127757,
_train_cond.csv,1 1 1 0 1 1 0 1 1 1,8,categoryA,f,,,0,6,6,0,2,2,30,4,,,,,,,,,,,,,,,,,,,j,0,1.3709623329923488,,,,,,,,,,,,,,,,,,,,,,,,,,,,,,,105,001,2021_Sep_27_1459,joplin1,2021.2.3,59.90666554127757,
_train_cond.csv,1 0 0 0 0 0 0 0 0 1,2,categoryB,j,,,0,6,6,0,2,3,31,7,,,,,,,,,,,,,,,,,,,j,1,0.10592966701369733,,,,,,,,,,,,,,,,,,,,,,,,,,,,,,,105,001,2021_Sep_27_1459,joplin1,2021.2.3,59.90666554127757,
_train_cond.csv,0 0 0 1 1 1 1 0 0 0,4,categoryB,j,,,0,6,6,0,2,4,32,10,,,,,,,,,,,,,,,,,,,j,1,0.3936065420275554,,,,,,,,,,,,,,,,,,,,,,,,,,,,,,,105,001,2021_Sep_27_1459,joplin1,2021.2.3,59.90666554127757,
_train_cond.csv,0 1 1 1 1 1 1 1 1 0,8,categoryA,f,,,0,6,6,0,2,5,33,0,,,,,,,,,,,,,,,,,,,f,1,1.5929059579502791,,,,,,,,,,,,,,,,,,,,,,,,,,,,,,,105,001,2021_Sep_27_1459,joplin1,2021.2.3,59.90666554127757,
_train_cond.csv,0 0 0 1 0 0 1 0 0 0,2,categoryB,j,,,0,6,6,0,2,6,34,11,,,,,,,,,,,,,,,,,,,j,1,0.48574266699142754,,,,,,,,,,,,,,,,,,,,,,,,,,,,,,,105,001,2021_Sep_27_1459,joplin1,2021.2.3,59.90666554127757,
_train_cond.csv,1 1 0 0 0 0 0 0 1 1,4,categoryB,j,,,0,6,6,0,2,7,35,13,,,,,,,,,,,,,,,,,,,j,1,0.9840318340575323,,,,,,,,,,,,,,,,,,,,,,,,,,,,,,,105,001,2021_Sep_27_1459,joplin1,2021.2.3,59.90666554127757,
_train_cond.csv,0 0 1 0 1 1 0 1 0 0,4,categoryB,j,,,0,6,6,0,2,8,36,9,,,,,,,,,,,,,,,,,,,j,1,0.2545712090213783,,,,,,,,,,,,,,,,,,,,,,,,,,,,,,,105,001,2021_Sep_27_1459,joplin1,2021.2.3,59.90666554127757,
_train_cond.csv,0 0 1 1 1 1 1 1 0 0,6,categoryA,f,,,0,6,6,0,2,9,37,6,,,,,,,,,,,,,,,,,,,f,1,0.5697787500103004,,,,,,,,,,,,,,,,,,,,,,,,,,,,,,,105,001,2021_Sep_27_1459,joplin1,2021.2.3,59.90666554127757,
_train_cond.csv,0 0 1 0 0 0 0 1 0 0,2,categoryB,j,,,0,6,6,0,2,10,38,12,,,,,,,,,,,,,,,,,,,j,1,0.031681915977969766,,,,,,,,,,,,,,,,,,,,,,,,,,,,,,,105,001,2021_Sep_27_1459,joplin1,2021.2.3,59.90666554127757,
_train_cond.csv,0 1 0 0 0 0 0 0 1 0,2,categoryB,j,,,0,6,6,0,2,11,39,8,,,,,,,,,,,,,,,,,,,j,1,0.9403860420570709,,,,,,,,,,,,,,,,,,,,,,,,,,,,,,,105,001,2021_Sep_27_1459,joplin1,2021.2.3,59.90666554127757,
_train_cond.csv,1 0 1 1 1 1 1 1 0 1,8,categoryA,f,,,0,6,6,0,2,12,40,1,,,,,,,,,,,,,,,,,,,f,1,0.7420497079729103,,,,,,,,,,,,,,,,,,,,,,,,,,,,,,,105,001,2021_Sep_27_1459,joplin1,2021.2.3,59.90666554127757,
_train_cond.csv,1 1 1 0 0 0 0 1 1 1,6,categoryA,f,,,0,6,6,0,2,13,41,3,,,,,,,,,,,,,,,,,,,f,1,0.7170176670188084,,,,,,,,,,,,,,,,,,,,,,,,,,,,,,,105,001,2021_Sep_27_1459,joplin1,2021.2.3,59.90666554127757,
_train_cond.csv,,,,,,,0,6,6,0,,,,,,,,,,,,,,,,,,,,,,,,,,space,24.126304665987846,,,,,,,,,,,,,,,,,,,,,,,,,,,,,105,001,2021_Sep_27_1459,joplin1,2021.2.3,59.90666554127757,
_train_cond.csv,1 1 1 0 0 0 0 1 1 1,6,categoryA,f,,,0,7,7,6,0,0,0,3,,,,,,,,,,,,,,,,,,,f,1,1.2456163330352865,,,,,,,,,,,,,,,,,,,,,,,,,,,,,,,105,001,2021_Sep_27_1459,joplin1,2021.2.3,59.90666554127757,
_train_cond.csv,1 1 0 1 1 1 1 0 1 1,8,categoryA,f,,,0,7,7,6,0,1,1,5,,,,,,,,,,,,,,,,,,,f,1,0.22520425001857802,,,,,,,,,,,,,,,,,,,,,,,,,,,,,,,105,001,2021_Sep_27_1459,joplin1,2021.2.3,59.90666554127757,
_train_cond.csv,0 0 0 1 1 1 1 0 0 0,4,categoryB,j,,,0,7,7,6,0,2,2,10,,,,,,,,,,,,,,,,,,,j,1,0.7826510000159033,,,,,,,,,,,,,,,,,,,,,,,,,,,,,,,105,001,2021_Sep_27_1459,joplin1,2021.2.3,59.90666554127757,
_train_cond.csv,0 0 1 1 1 1 1 1 0 0,6,categoryA,f,,,0,7,7,6,0,3,3,6,,,,,,,,,,,,,,,,,,,f,1,0.716549374978058,,,,,,,,,,,,,,,,,,,,,,,,,,,,,,,105,001,2021_Sep_27_1459,joplin1,2021.2.3,59.90666554127757,
_train_cond.csv,1 1 0 1 0 0 1 0 1 1,6,categoryA,f,,,0,7,7,6,0,4,4,2,,,,,,,,,,,,,,,,,,,f,1,1.3580524579738267,,,,,,,,,,,,,,,,,,,,,,,,,,,,,,,105,001,2021_Sep_27_1459,joplin1,2021.2.3,59.90666554127757,
_train_cond.csv,1 1 0 0 0 0 0 0 1 1,4,categoryB,j,,,0,7,7,6,0,5,5,13,,,,,,,,,,,,,,,,,,,j,1,0.43720325001049787,,,,,,,,,,,,,,,,,,,,,,,,,,,,,,,105,001,2021_Sep_27_1459,joplin1,2021.2.3,59.90666554127757,
_train_cond.csv,1 0 1 1 1 1 1 1 0 1,8,categoryA,f,,,0,7,7,6,0,6,6,1,,,,,,,,,,,,,,,,,,,f,1,0.8183562090271153,,,,,,,,,,,,,,,,,,,,,,,,,,,,,,,105,001,2021_Sep_27_1459,joplin1,2021.2.3,59.90666554127757,
_train_cond.csv,0 0 1 0 1 1 0 1 0 0,4,categoryB,j,,,0,7,7,6,0,7,7,9,,,,,,,,,,,,,,,,,,,j,1,0.28635304199997336,,,,,,,,,,,,,,,,,,,,,,,,,,,,,,,105,001,2021_Sep_27_1459,joplin1,2021.2.3,59.90666554127757,
_train_cond.csv,0 1 1 1 1 1 1 1 1 0,8,categoryA,f,,,0,7,7,6,0,8,8,0,,,,,,,,,,,,,,,,,,,f,1,1.0939665420446545,,,,,,,,,,,,,,,,,,,,,,,,,,,,,,,105,001,2021_Sep_27_1459,joplin1,2021.2.3,59.90666554127757,
_train_cond.csv,1 0 0 0 0 0 0 0 0 1,2,categoryB,j,,,0,7,7,6,0,9,9,7,,,,,,,,,,,,,,,,,,,j,1,0.43137270904844627,,,,,,,,,,,,,,,,,,,,,,,,,,,,,,,105,001,2021_Sep_27_1459,joplin1,2021.2.3,59.90666554127757,
_train_cond.csv,0 0 1 0 0 0 0 1 0 0,2,categoryB,j,,,0,7,7,6,0,10,10,12,,,,,,,,,,,,,,,,,,,j,1,0.4433513749972917,,,,,,,,,,,,,,,,,,,,,,,,,,,,,,,105,001,2021_Sep_27_1459,joplin1,2021.2.3,59.90666554127757,
_train_cond.csv,1 1 1 0 1 1 0 1 1 1,8,categoryA,f,,,0,7,7,6,0,11,11,4,,,,,,,,,,,,,,,,,,,f,1,0.7367094159708358,,,,,,,,,,,,,,,,,,,,,,,,,,,,,,,105,001,2021_Sep_27_1459,joplin1,2021.2.3,59.90666554127757,
_train_cond.csv,0 0 0 1 0 0 1 0 0 0,2,categoryB,j,,,0,7,7,6,0,12,12,11,,,,,,,,,,,,,,,,,,,j,1,0.15929854195564985,,,,,,,,,,,,,,,,,,,,,,,,,,,,,,,105,001,2021_Sep_27_1459,joplin1,2021.2.3,59.90666554127757,
_train_cond.csv,0 1 0 0 0 0 0 0 1 0,2,categoryB,j,,,0,7,7,6,0,13,13,8,,,,,,,,,,,,,,,,,,,j,1,0.09389129100600258,,,,,,,,,,,,,,,,,,,,,,,,,,,,,,,105,001,2021_Sep_27_1459,joplin1,2021.2.3,59.90666554127757,
_train_cond.csv,1 1 0 1 1 1 1 0 1 1,8,categoryA,f,,,0,7,7,6,1,0,14,5,,,,,,,,,,,,,,,,,,,f,1,0.4791795000201091,,,,,,,,,,,,,,,,,,,,,,,,,,,,,,,105,001,2021_Sep_27_1459,joplin1,2021.2.3,59.90666554127757,
_train_cond.csv,1 1 1 0 0 0 0 1 1 1,6,categoryA,f,,,0,7,7,6,1,1,15,3,,,,,,,,,,,,,,,,,,,f,1,0.4497584159835242,,,,,,,,,,,,,,,,,,,,,,,,,,,,,,,105,001,2021_Sep_27_1459,joplin1,2021.2.3,59.90666554127757,
_train_cond.csv,0 0 1 1 1 1 1 1 0 0,6,categoryA,f,,,0,7,7,6,1,2,16,6,,,,,,,,,,,,,,,,,,,f,1,0.4852100409916602,,,,,,,,,,,,,,,,,,,,,,,,,,,,,,,105,001,2021_Sep_27_1459,joplin1,2021.2.3,59.90666554127757,
_train_cond.csv,1 1 0 0 0 0 0 0 1 1,4,categoryB,j,,,0,7,7,6,1,3,17,13,,,,,,,,,,,,,,,,,,,j,1,0.5759053329820745,,,,,,,,,,,,,,,,,,,,,,,,,,,,,,,105,001,2021_Sep_27_1459,joplin1,2021.2.3,59.90666554127757,
_train_cond.csv,0 0 1 0 0 0 0 1 0 0,2,categoryB,j,,,0,7,7,6,1,4,18,12,,,,,,,,,,,,,,,,,,,j,1,0.7497968340176158,,,,,,,,,,,,,,,,,,,,,,,,,,,,,,,105,001,2021_Sep_27_1459,joplin1,2021.2.3,59.90666554127757,
_train_cond.csv,0 1 0 0 0 0 0 0 1 0,2,categoryB,j,,,0,7,7,6,1,5,19,8,,,,,,,,,,,,,,,,,,,j,1,0.42284150002524257,,,,,,,,,,,,,,,,,,,,,,,,,,,,,,,105,001,2021_Sep_27_1459,joplin1,2021.2.3,59.90666554127757,
_train_cond.csv,0 0 1 0 1 1 0 1 0 0,4,categoryB,j,,,0,7,7,6,1,6,20,9,,,,,,,,,,,,,,,,,,,j,1,1.0113192499848083,,,,,,,,,,,,,,,,,,,,,,,,,,,,,,,105,001,2021_Sep_27_1459,joplin1,2021.2.3,59.90666554127757,
_train_cond.csv,0 1 1 1 1 1 1 1 1 0,8,categoryA,f,,,0,7,7,6,1,7,21,0,,,,,,,,,,,,,,,,,,,f,1,0.5046691659954377,,,,,,,,,,,,,,,,,,,,,,,,,,,,,,,105,001,2021_Sep_27_1459,joplin1,2021.2.3,59.90666554127757,
_train_cond.csv,1 1 1 0 1 1 0 1 1 1,8,categoryA,f,,,0,7,7,6,1,8,22,4,,,,,,,,,,,,,,,,,,,f,1,0.5291977500310168,,,,,,,,,,,,,,,,,,,,,,,,,,,,,,,105,001,2021_Sep_27_1459,joplin1,2021.2.3,59.90666554127757,
_train_cond.csv,1 1 0 1 0 0 1 0 1 1,6,categoryA,f,,,0,7,7,6,1,9,23,2,,,,,,,,,,,,,,,,,,,f,1,1.2091796669992618,,,,,,,,,,,,,,,,,,,,,,,,,,,,,,,105,001,2021_Sep_27_1459,joplin1,2021.2.3,59.90666554127757,
_train_cond.csv,1 0 1 1 1 1 1 1 0 1,8,categoryA,f,,,0,7,7,6,1,10,24,1,,,,,,,,,,,,,,,,,,,f,1,1.175061125017237,,,,,,,,,,,,,,,,,,,,,,,,,,,,,,,105,001,2021_Sep_27_1459,joplin1,2021.2.3,59.90666554127757,
_train_cond.csv,0 0 0 1 0 0 1 0 0 0,2,categoryB,j,,,0,7,7,6,1,11,25,11,,,,,,,,,,,,,,,,,,,j,1,0.44600191595964134,,,,,,,,,,,,,,,,,,,,,,,,,,,,,,,105,001,2021_Sep_27_1459,joplin1,2021.2.3,59.90666554127757,
_train_cond.csv,0 0 0 1 1 1 1 0 0 0,4,categoryB,j,,,0,7,7,6,1,12,26,10,,,,,,,,,,,,,,,,,,,j,1,0.46624712500488386,,,,,,,,,,,,,,,,,,,,,,,,,,,,,,,105,001,2021_Sep_27_1459,joplin1,2021.2.3,59.90666554127757,
_train_cond.csv,1 0 0 0 0 0 0 0 0 1,2,categoryB,j,,,0,7,7,6,1,13,27,7,,,,,,,,,,,,,,,,,,,j,1,0.5823891250183806,,,,,,,,,,,,,,,,,,,,,,,,,,,,,,,105,001,2021_Sep_27_1459,joplin1,2021.2.3,59.90666554127757,
_train_cond.csv,1 0 0 0 0 0 0 0 0 1,2,categoryB,j,,,0,7,7,6,2,0,28,7,,,,,,,,,,,,,,,,,,,j,1,1.0453249160200357,,,,,,,,,,,,,,,,,,,,,,,,,,,,,,,105,001,2021_Sep_27_1459,joplin1,2021.2.3,59.90666554127757,
_train_cond.csv,0 0 0 1 0 0 1 0 0 0,2,categoryB,j,,,0,7,7,6,2,1,29,11,,,,,,,,,,,,,,,,,,,j,1,0.5700387919787318,,,,,,,,,,,,,,,,,,,,,,,,,,,,,,,105,001,2021_Sep_27_1459,joplin1,2021.2.3,59.90666554127757,
_train_cond.csv,0 1 0 0 0 0 0 0 1 0,2,categoryB,j,,,0,7,7,6,2,2,30,8,,,,,,,,,,,,,,,,,,,j,1,0.48046058299951255,,,,,,,,,,,,,,,,,,,,,,,,,,,,,,,105,001,2021_Sep_27_1459,joplin1,2021.2.3,59.90666554127757,
_train_cond.csv,0 0 1 0 0 0 0 1 0 0,2,categoryB,j,,,0,7,7,6,2,3,31,12,,,,,,,,,,,,,,,,,,,j,1,0.48921858303947374,,,,,,,,,,,,,,,,,,,,,,,,,,,,,,,105,001,2021_Sep_27_1459,joplin1,2021.2.3,59.90666554127757,
_train_cond.csv,1 0 1 1 1 1 1 1 0 1,8,categoryA,f,,,0,7,7,6,2,4,32,1,,,,,,,,,,,,,,,,,,,f,1,0.5002390830195509,,,,,,,,,,,,,,,,,,,,,,,,,,,,,,,105,001,2021_Sep_27_1459,joplin1,2021.2.3,59.90666554127757,
_train_cond.csv,1 1 0 0 0 0 0 0 1 1,4,categoryB,j,,,0,7,7,6,2,5,33,13,,,,,,,,,,,,,,,,,,,f,0,2.1960617909790017,,,,,,,,,,,,,,,,,,,,,,,,,,,,,,,105,001,2021_Sep_27_1459,joplin1,2021.2.3,59.90666554127757,
_train_cond.csv,1 1 1 0 0 0 0 1 1 1,6,categoryA,f,,,0,7,7,6,2,6,34,3,,,,,,,,,,,,,,,,,,,f,1,0.25811620900640264,,,,,,,,,,,,,,,,,,,,,,,,,,,,,,,105,001,2021_Sep_27_1459,joplin1,2021.2.3,59.90666554127757,
_train_cond.csv,0 0 0 1 1 1 1 0 0 0,4,categoryB,j,,,0,7,7,6,2,7,35,10,,,,,,,,,,,,,,,,,,,j,1,0.11625300004379824,,,,,,,,,,,,,,,,,,,,,,,,,,,,,,,105,001,2021_Sep_27_1459,joplin1,2021.2.3,59.90666554127757,
_train_cond.csv,1 1 0 1 1 1 1 0 1 1,8,categoryA,f,,,0,7,7,6,2,8,36,5,,,,,,,,,,,,,,,,,,,f,1,0.5017611249932088,,,,,,,,,,,,,,,,,,,,,,,,,,,,,,,105,001,2021_Sep_27_1459,joplin1,2021.2.3,59.90666554127757,
_train_cond.csv,0 0 1 1 1 1 1 1 0 0,6,categoryA,f,,,0,7,7,6,2,9,37,6,,,,,,,,,,,,,,,,,,,f,1,0.41568249999545515,,,,,,,,,,,,,,,,,,,,,,,,,,,,,,,105,001,2021_Sep_27_1459,joplin1,2021.2.3,59.90666554127757,
_train_cond.csv,0 1 1 1 1 1 1 1 1 0,8,categoryA,f,,,0,7,7,6,2,10,38,0,,,,,,,,,,,,,,,,,,,f,1,0.2773085840162821,,,,,,,,,,,,,,,,,,,,,,,,,,,,,,,105,001,2021_Sep_27_1459,joplin1,2021.2.3,59.90666554127757,
_train_cond.csv,1 1 1 0 1 1 0 1 1 1,8,categoryA,f,,,0,7,7,6,2,11,39,4,,,,,,,,,,,,,,,,,,,f,1,0.5920782920438796,,,,,,,,,,,,,,,,,,,,,,,,,,,,,,,105,001,2021_Sep_27_1459,joplin1,2021.2.3,59.90666554127757,
_train_cond.csv,1 1 0 1 0 0 1 0 1 1,6,categoryA,f,,,0,7,7,6,2,12,40,2,,,,,,,,,,,,,,,,,,,f,1,0.2942110410076566,,,,,,,,,,,,,,,,,,,,,,,,,,,,,,,105,001,2021_Sep_27_1459,joplin1,2021.2.3,59.90666554127757,
_train_cond.csv,0 0 1 0 1 1 0 1 0 0,4,categoryB,j,,,0,7,7,6,2,13,41,9,,,,,,,,,,,,,,,,,,,j,1,0.6716547920368612,,,,,,,,,,,,,,,,,,,,,,,,,,,,,,,105,001,2021_Sep_27_1459,joplin1,2021.2.3,59.90666554127757,
_train_cond.csv,,,,,,,0,7,7,6,,,,,,,,,,,,,,,,,,,,,,,,,,space,1.626769291004166,,,,,,,,,,,,,,,,,,,,,,,,,,,,,105,001,2021_Sep_27_1459,joplin1,2021.2.3,59.90666554127757,
,,,,,,,,,,,,,,,,,,,,,,,,,,,,,,,,,,,,,,q,20.865501916967332,,,,,,,,,,,,,,,,,,,,,,,,,,,105,001,2021_Sep_27_1459,joplin1,2021.2.3,59.90666554127757,
,,,,,,,,,,,,,,,,,,,,,,,,,,,,,,,,,,,,,,,,f,16.310151749989018,,,,,,,,,,,,,,,,,,,,,,,,,105,001,2021_Sep_27_1459,joplin1,2021.2.3,59.90666554127757,
,,,,,,,,,,,,,,,,,,,,,,,,,,,,,,,,,,,,,,,,,,space,8.298119333048817,,,,,,,,,,,,,,,,,,,,,,,105,001,2021_Sep_27_1459,joplin1,2021.2.3,59.90666554127757,
,,,,,,,,,,,,,,,,,,,,,,,,,,,,,,,,,,,,,,,,,,,,space,1.980370416014921,,,,,,,,,,,,,,,,,,,,,105,001,2021_Sep_27_1459,joplin1,2021.2.3,59.90666554127757,
,0 0 1 0 0 0 0 0 0 0,1,categoryB,j,genfile2.csv,0,,,,,,,,,0,0,0,1,0,0,0,52,,,,,,,,,,,,,,,,,,,,,,,,j,1,1.1847037500119768,,,,,,,,,,,,,,,,,,105,001,2021_Sep_27_1459,joplin1,2021.2.3,59.90666554127757,
,1 1 1 1 1 1 1 0 1 1,9,categoryA,f,genfile2.csv,0,,,,,,,,,0,0,0,1,0,1,1,20,,,,,,,,,,,,,,,,,,,,,,,,f,1,0.7499262500205077,,,,,,,,,,,,,,,,,,105,001,2021_Sep_27_1459,joplin1,2021.2.3,59.90666554127757,
,0 0 1 1 1 1 1 1 0 0,6,categoryA,f,genfile2.csv,1,,,,,,,,,0,0,0,1,0,2,2,8,,,,,,,,,,,,,,,,,,,,,,,,f,1,0.5087239999556914,,,,,,,,,,,,,,,,,,105,001,2021_Sep_27_1459,joplin1,2021.2.3,59.90666554127757,
,1 1 0 0 1 0 1 1 1 0,6,categoryA,f,genfile2.csv,0,,,,,,,,,0,0,0,1,0,3,3,34,,,,,,,,,,,,,,,,,,,,,,,,f,1,1.8433617919799872,,,,,,,,,,,,,,,,,,105,001,2021_Sep_27_1459,joplin1,2021.2.3,59.90666554127757,
,1 1 1 0 1 1 0 1 1 1,8,categoryA,f,genfile2.csv,1,,,,,,,,,0,0,0,1,0,4,4,6,,,,,,,,,,,,,,,,,,,,,,,,f,1,0.8633308749995194,,,,,,,,,,,,,,,,,,105,001,2021_Sep_27_1459,joplin1,2021.2.3,59.90666554127757,
,1 1 1 0 1 1 0 0 1 1,7,categoryA,f,genfile2.csv,0,,,,,,,,,0,0,0,1,0,5,5,26,,,,,,,,,,,,,,,,,,,,,,,,j,0,1.3687795840087347,,,,,,,,,,,,,,,,,,105,001,2021_Sep_27_1459,joplin1,2021.2.3,59.90666554127757,
,0 0 0 1 1 0 1 1 1 1,6,categoryA,f,genfile2.csv,0,,,,,,,,,0,0,0,1,0,6,6,31,,,,,,,,,,,,,,,,,,,,,,,,j,0,0.8834333330160007,,,,,,,,,,,,,,,,,,105,001,2021_Sep_27_1459,joplin1,2021.2.3,59.90666554127757,
,1 1 1 1 0 0 0 1 1 1,7,categoryA,f,genfile2.csv,0,,,,,,,,,0,0,0,1,0,7,7,30,,,,,,,,,,,,,,,,,,,,,,,,f,1,0.5655254169832915,,,,,,,,,,,,,,,,,,105,001,2021_Sep_27_1459,joplin1,2021.2.3,59.90666554127757,
,1 0 0 0 0 0 0 0 0 1,2,categoryB,j,genfile2.csv,1,,,,,,,,,0,0,0,1,0,8,8,9,,,,,,,,,,,,,,,,,,,,,,,,j,1,0.47630924999248236,,,,,,,,,,,,,,,,,,105,001,2021_Sep_27_1459,joplin1,2021.2.3,59.90666554127757,
,0 1 1 1 1 0 1 1 1 1,8,categoryA,f,genfile2.csv,0,,,,,,,,,0,0,0,1,0,9,9,23,,,,,,,,,,,,,,,,,,,,,,,,j,0,0.4040302089997567,,,,,,,,,,,,,,,,,,105,001,2021_Sep_27_1459,joplin1,2021.2.3,59.90666554127757,
,1 1 1 1 1 1 1 1 1 1,10,categoryA,f,genfile2.csv,0,,,,,,,,,0,0,0,1,0,10,10,1,,,,,,,,,,,,,,,,,,,,,,,,f,1,0.5449649579823017,,,,,,,,,,,,,,,,,,105,001,2021_Sep_27_1459,joplin1,2021.2.3,59.90666554127757,
,1 1 0 1 1 1 1 0 1 1,8,categoryA,f,genfile2.csv,1,,,,,,,,,0,0,0,1,0,11,11,7,,,,,,,,,,,,,,,,,,,,,,,,f,1,1.3927079999702983,,,,,,,,,,,,,,,,,,105,001,2021_Sep_27_1459,joplin1,2021.2.3,59.90666554127757,
,0 0 0 0 0 0 1 0 1 1,3,categoryB,j,genfile2.csv,0,,,,,,,,,0,0,0,1,0,12,12,43,,,,,,,,,,,,,,,,,,,,,,,,j,1,0.8279077919432893,,,,,,,,,,,,,,,,,,105,001,2021_Sep_27_1459,joplin1,2021.2.3,59.90666554127757,
,1 1 1 0 1 0 1 1 0 1,7,categoryA,f,genfile2.csv,0,,,,,,,,,0,0,0,1,0,13,13,27,,,,,,,,,,,,,,,,,,,,,,,,j,0,0.9003668330260552,,,,,,,,,,,,,,,,,,105,001,2021_Sep_27_1459,joplin1,2021.2.3,59.90666554127757,
,0 0 0 1 0 0 1 0 0 0,2,categoryB,j,genfile2.csv,1,,,,,,,,,0,0,0,1,0,14,14,13,,,,,,,,,,,,,,,,,,,,,,,,j,1,0.5959946250077337,,,,,,,,,,,,,,,,,,105,001,2021_Sep_27_1459,joplin1,2021.2.3,59.90666554127757,
,1 0 1 1 1 1 0 1 1 1,8,categoryA,f,genfile2.csv,0,,,,,,,,,0,0,0,1,0,15,15,25,,,,,,,,,,,,,,,,,,,,,,,,f,1,0.8413893749821,,,,,,,,,,,,,,,,,,105,001,2021_Sep_27_1459,joplin1,2021.2.3,59.90666554127757,
,0 0 0 0 0 0 1 1 0 0,2,categoryB,j,genfile2.csv,0,,,,,,,,,0,0,0,1,0,16,16,46,,,,,,,,,,,,,,,,,,,,,,,,j,1,0.17263491702033207,,,,,,,,,,,,,,,,,,105,001,2021_Sep_27_1459,joplin1,2021.2.3,59.90666554127757,
,0 0 1 0 1 0 0 0 0 0,2,categoryB,j,genfile2.csv,0,,,,,,,,,0,0,0,1,0,17,17,48,,,,,,,,,,,,,,,,,,,,,,,,j,1,1.5464929170557298,,,,,,,,,,,,,,,,,,105,001,2021_Sep_27_1459,joplin1,2021.2.3,59.90666554127757,
,0 1 0 0 1 1 0 0 0 1,4,categoryB,j,genfile2.csv,0,,,,,,,,,0,0,0,1,0,18,18,36,,,,,,,,,,,,,,,,,,,,,,,,j,1,0.9202029579901136,,,,,,,,,,,,,,,,,,105,001,2021_Sep_27_1459,joplin1,2021.2.3,59.90666554127757,
,0 0 0 0 0 1 0 0 0 0,1,categoryB,j,genfile2.csv,0,,,,,,,,,0,0,0,1,0,19,19,53,,,,,,,,,,,,,,,,,,,,,,,,j,1,0.9446220829850063,,,,,,,,,,,,,,,,,,105,001,2021_Sep_27_1459,joplin1,2021.2.3,59.90666554127757,
,1 0 1 1 1 1 1 1 0 1,8,categoryA,f,genfile2.csv,1,,,,,,,,,0,0,0,1,0,20,20,3,,,,,,,,,,,,,,,,,,,,,,,,f,1,0.47956720896763727,,,,,,,,,,,,,,,,,,105,001,2021_Sep_27_1459,joplin1,2021.2.3,59.90666554127757,
,1 1 1 1 1 0 1 1 1 1,9,categoryA,f,genfile2.csv,0,,,,,,,,,0,0,0,1,0,21,21,18,,,,,,,,,,,,,,,,,,,,,,,,f,1,0.5779623749549501,,,,,,,,,,,,,,,,,,105,001,2021_Sep_27_1459,joplin1,2021.2.3,59.90666554127757,
,0 1 1 1 1 1 1 1 1 0,8,categoryA,f,genfile2.csv,1,,,,,,,,,0,0,0,1,0,22,22,2,,,,,,,,,,,,,,,,,,,,,,,,f,1,0.43981345900101587,,,,,,,,,,,,,,,,,,105,001,2021_Sep_27_1459,joplin1,2021.2.3,59.90666554127757,
,1 0 1 1 1 0 1 1 1 1,8,categoryA,f,genfile2.csv,0,,,,,,,,,0,0,0,1,0,23,23,22,,,,,,,,,,,,,,,,,,,,,,,,f,1,0.14750620804261416,,,,,,,,,,,,,,,,,,105,001,2021_Sep_27_1459,joplin1,2021.2.3,59.90666554127757,
,0 0 1 1 1 1 1 1 0 1,7,categoryA,f,genfile2.csv,0,,,,,,,,,0,0,0,1,0,24,24,29,,,,,,,,,,,,,,,,,,,,,,,,j,0,0.6744541250518523,,,,,,,,,,,,,,,,,,105,001,2021_Sep_27_1459,joplin1,2021.2.3,59.90666554127757,
,1 1 1 0 1 1 1 1 1 1,9,categoryA,f,genfile2.csv,0,,,,,,,,,0,0,0,1,0,25,25,16,,,,,,,,,,,,,,,,,,,,,,,,f,1,1.1473977499990724,,,,,,,,,,,,,,,,,,105,001,2021_Sep_27_1459,joplin1,2021.2.3,59.90666554127757,
,0 0 0 0 1 0 0 1 0 0,2,categoryB,j,genfile2.csv,0,,,,,,,,,0,0,0,1,0,26,26,50,,,,,,,,,,,,,,,,,,,,,,,,None,0,,,,,,,,,,,,,,,,,,,105,001,2021_Sep_27_1459,joplin1,2021.2.3,59.90666554127757,
,0 1 1 0 0 1 0 1 0 0,4,categoryB,j,genfile2.csv,0,,,,,,,,,0,0,0,1,0,27,27,39,,,,,,,,,,,,,,,,,,,,,,,,j,1,0.5514024159638211,,,,,,,,,,,,,,,,,,105,001,2021_Sep_27_1459,joplin1,2021.2.3,59.90666554127757,
,1 1 0 1 0 0 1 0 1 1,6,categoryA,f,genfile2.csv,1,,,,,,,,,0,0,0,1,0,28,28,4,,,,,,,,,,,,,,,,,,,,,,,,f,1,1.1595742909703404,,,,,,,,,,,,,,,,,,105,001,2021_Sep_27_1459,joplin1,2021.2.3,59.90666554127757,
,0 0 1 0 0 0 0 1 0 1,3,categoryB,j,genfile2.csv,0,,,,,,,,,0,0,0,1,0,29,29,41,,,,,,,,,,,,,,,,,,,,,,,,j,1,0.5177564580226317,,,,,,,,,,,,,,,,,,105,001,2021_Sep_27_1459,joplin1,2021.2.3,59.90666554127757,
,0 0 0 0 0 0 0 0 0 1,1,categoryB,j,genfile2.csv,0,,,,,,,,,0,0,0,1,0,30,30,51,,,,,,,,,,,,,,,,,,,,,,,,j,1,0.38938508299179375,,,,,,,,,,,,,,,,,,105,001,2021_Sep_27_1459,joplin1,2021.2.3,59.90666554127757,
,0 1 0 1 0 0 0 0 0 0,2,categoryB,j,genfile2.csv,0,,,,,,,,,0,0,0,1,0,31,31,47,,,,,,,,,,,,,,,,,,,,,,,,j,1,0.38509908301057294,,,,,,,,,,,,,,,,,,105,001,2021_Sep_27_1459,joplin1,2021.2.3,59.90666554127757,
,0 0 1 0 1 1 0 1 0 0,4,categoryB,j,genfile2.csv,1,,,,,,,,,0,0,0,1,0,32,32,11,,,,,,,,,,,,,,,,,,,,,,,,j,1,1.0715736250276677,,,,,,,,,,,,,,,,,,105,001,2021_Sep_27_1459,joplin1,2021.2.3,59.90666554127757,
,0 1 0 0 0 0 0 0 1 0,2,categoryB,j,genfile2.csv,1,,,,,,,,,0,0,0,1,0,33,33,10,,,,,,,,,,,,,,,,,,,,,,,,j,1,0.6027345000184141,,,,,,,,,,,,,,,,,,105,001,2021_Sep_27_1459,joplin1,2021.2.3,59.90666554127757,
,0 1 1 1 1 1 1 1 1 1,9,categoryA,f,genfile2.csv,0,,,,,,,,,0,0,0,1,0,34,34,19,,,,,,,,,,,,,,,,,,,,,,,,f,1,1.1504459580173716,,,,,,,,,,,,,,,,,,105,001,2021_Sep_27_1459,joplin1,2021.2.3,59.90666554127757,
,1 1 0 0 0 0 0 0 1 1,4,categoryB,j,genfile2.csv,1,,,,,,,,,0,0,0,1,0,35,35,15,,,,,,,,,,,,,,,,,,,,,,,,f,0,1.1187399170012213,,,,,,,,,,,,,,,,,,105,001,2021_Sep_27_1459,joplin1,2021.2.3,59.90666554127757,
,0 0 0 1 1 1 1 0 0 0,4,categoryB,j,genfile2.csv,1,,,,,,,,,0,0,0,1,0,36,36,12,,,,,,,,,,,,,,,,,,,,,,,,f,0,1.7034151250263676,,,,,,,,,,,,,,,,,,105,001,2021_Sep_27_1459,joplin1,2021.2.3,59.90666554127757,
,1 0 0 0 0 0 1 0 1 0,3,categoryB,j,genfile2.csv,0,,,,,,,,,0,0,0,1,0,37,37,45,,,,,,,,,,,,,,,,,,,,,,,,f,0,1.4959671249962412,,,,,,,,,,,,,,,,,,105,001,2021_Sep_27_1459,joplin1,2021.2.3,59.90666554127757,
,1 1 1 1 0 0 1 1 1 1,8,categoryA,f,genfile2.csv,0,,,,,,,,,0,0,0,1,0,38,38,21,,,,,,,,,,,,,,,,,,,,,,,,f,1,1.3837704999605194,,,,,,,,,,,,,,,,,,105,001,2021_Sep_27_1459,joplin1,2021.2.3,59.90666554127757,
,0 0 1 1 0 0 0 1 1 0,4,categoryB,j,genfile2.csv,0,,,,,,,,,0,0,0,1,0,39,39,38,,,,,,,,,,,,,,,,,,,,,,,,j,1,1.0615415829815902,,,,,,,,,,,,,,,,,,105,001,2021_Sep_27_1459,joplin1,2021.2.3,59.90666554127757,
,1 0 1 0 0 0 1 1 1 1,6,categoryA,f,genfile2.csv,0,,,,,,,,,0,0,0,1,0,40,40,35,,,,,,,,,,,,,,,,,,,,,,,,f,1,1.102885292028077,,,,,,,,,,,,,,,,,,105,001,2021_Sep_27_1459,joplin1,2021.2.3,59.90666554127757,
,0 0 1 1 0 1 1 0 0 0,4,categoryB,j,genfile2.csv,0,,,,,,,,,0,0,0,1,0,41,41,37,,,,,,,,,,,,,,,,,,,,,,,,j,1,1.3984315830166452,,,,,,,,,,,,,,,,,,105,001,2021_Sep_27_1459,joplin1,2021.2.3,59.90666554127757,
,0 0 1 0 0 0 0 1 0 0,2,categoryB,j,genfile2.csv,1,,,,,,,,,0,0,0,1,0,42,42,14,,,,,,,,,,,,,,,,,,,,,,,,j,1,0.6446429169736803,,,,,,,,,,,,,,,,,,105,001,2021_Sep_27_1459,joplin1,2021.2.3,59.90666554127757,
,1 1 1 0 0 1 0 1 1 0,6,categoryA,f,genfile2.csv,0,,,,,,,,,0,0,0,1,0,43,43,33,,,,,,,,,,,,,,,,,,,,,,,,f,1,1.3997260839678347,,,,,,,,,,,,,,,,,,105,001,2021_Sep_27_1459,joplin1,2021.2.3,59.90666554127757,
,0 1 0 0 0 1 1 1 0 0,4,categoryB,j,genfile2.csv,0,,,,,,,,,0,0,0,1,0,44,44,40,,,,,,,,,,,,,,,,,,,,,,,,f,0,0.5076306250412017,,,,,,,,,,,,,,,,,,105,001,2021_Sep_27_1459,joplin1,2021.2.3,59.90666554127757,
,0 0 1 0 0 1 0 0 0 0,2,categoryB,j,genfile2.csv,0,,,,,,,,,0,0,0,1,0,45,45,49,,,,,,,,,,,,,,,,,,,,,,,,j,1,0.33989483298501,,,,,,,,,,,,,,,,,,105,001,2021_Sep_27_1459,joplin1,2021.2.3,59.90666554127757,
,0 1 1 0 0 0 0 1 0 0,3,categoryB,j,genfile2.csv,0,,,,,,,,,0,0,0,1,0,46,46,44,,,,,,,,,,,,,,,,,,,,,,,,j,1,0.1873602910200134,,,,,,,,,,,,,,,,,,105,001,2021_Sep_27_1459,joplin1,2021.2.3,59.90666554127757,
,0 0 0 0 0 0 0 1 0 0,1,categoryB,j,genfile2.csv,0,,,,,,,,,0,0,0,1,0,47,47,55,,,,,,,,,,,,,,,,,,,,,,,,j,1,0.4225967079983093,,,,,,,,,,,,,,,,,,105,001,2021_Sep_27_1459,joplin1,2021.2.3,59.90666554127757,
,0 0 0 0 0 0 0 0 0 0,0,categoryB,j,genfile2.csv,0,,,,,,,,,0,0,0,1,0,48,48,0,,,,,,,,,,,,,,,,,,,,,,,,j,1,0.14562154200393707,,,,,,,,,,,,,,,,,,105,001,2021_Sep_27_1459,joplin1,2021.2.3,59.90666554127757,
,0 1 0 0 1 1 0 0 0 0,3,categoryB,j,genfile2.csv,0,,,,,,,,,0,0,0,1,0,49,49,42,,,,,,,,,,,,,,,,,,,,,,,,j,1,0.33627425000304356,,,,,,,,,,,,,,,,,,105,001,2021_Sep_27_1459,joplin1,2021.2.3,59.90666554127757,
,1 1 1 1 1 1 1 1 0 1,9,categoryA,f,genfile2.csv,0,,,,,,,,,0,0,0,1,0,50,50,17,,,,,,,,,,,,,,,,,,,,,,,,f,1,0.22301899996818975,,,,,,,,,,,,,,,,,,105,001,2021_Sep_27_1459,joplin1,2021.2.3,59.90666554127757,
,0 1 0 0 0 0 0 0 0 0,1,categoryB,j,genfile2.csv,0,,,,,,,,,0,0,0,1,0,51,51,54,,,,,,,,,,,,,,,,,,,,,,,,j,1,0.2352757080225274,,,,,,,,,,,,,,,,,,105,001,2021_Sep_27_1459,joplin1,2021.2.3,59.90666554127757,
,1 1 1 1 0 1 0 1 1 1,8,categoryA,f,genfile2.csv,0,,,,,,,,,0,0,0,1,0,52,52,24,,,,,,,,,,,,,,,,,,,,,,,,f,1,0.6225977919530123,,,,,,,,,,,,,,,,,,105,001,2021_Sep_27_1459,joplin1,2021.2.3,59.90666554127757,
,1 1 1 0 1 1 0 0 1 0,6,categoryA,f,genfile2.csv,0,,,,,,,,,0,0,0,1,0,53,53,32,,,,,,,,,,,,,,,,,,,,,,,,j,0,0.93912499997532,,,,,,,,,,,,,,,,,,105,001,2021_Sep_27_1459,joplin1,2021.2.3,59.90666554127757,
,0 1 1 1 1 0 1 0 1 1,7,categoryA,f,genfile2.csv,0,,,,,,,,,0,0,0,1,0,54,54,28,,,,,,,,,,,,,,,,,,,,,,,,f,1,1.664994792023208,,,,,,,,,,,,,,,,,,105,001,2021_Sep_27_1459,joplin1,2021.2.3,59.90666554127757,
,1 1 1 0 0 0 0 1 1 1,6,categoryA,f,genfile2.csv,1,,,,,,,,,0,0,0,1,0,55,55,5,,,,,,,,,,,,,,,,,,,,,,,,f,1,1.0207950840122066,,,,,,,,,,,,,,,,,,105,001,2021_Sep_27_1459,joplin1,2021.2.3,59.90666554127757,
,,,,,genfile2.csv,,,,,,,,,,0,0,0,1,,,,,,,,,,,,,,,,,,space,7.731139291950967,,,,,,,,,,,,,,,,,,,,,,,,,,,,,105,001,2021_Sep_27_1459,joplin1,2021.2.3,59.90666554127757,
,1 0 1 0 0 0 0 0 0 0,2,categoryB,j,genfile1.csv,0,,,,,,,,,0,1,1,0,0,0,0,47,,,,,,,,,,,,,,,,,,,,,,,,j,1,1.0798977080266923,,,,,,,,,,,,,,,,,,105,001,2021_Sep_27_1459,joplin1,2021.2.3,59.90666554127757,
,1 1 1 1 1 1 1 1 1 1,10,categoryA,f,genfile1.csv,0,,,,,,,,,0,1,1,0,0,1,1,1,,,,,,,,,,,,,,,,,,,,,,,,f,1,0.5868950830190443,,,,,,,,,,,,,,,,,,105,001,2021_Sep_27_1459,joplin1,2021.2.3,59.90666554127757,
,0 0 0 0 0 0 0 0 0 0,0,categoryB,j,genfile1.csv,0,,,,,,,,,0,1,1,0,0,2,2,0,,,,,,,,,,,,,,,,,,,,,,,,j,1,0.23267387499799952,,,,,,,,,,,,,,,,,,105,001,2021_Sep_27_1459,joplin1,2021.2.3,59.90666554127757,
,1 1 1 0 0 0 1 1 1 1,7,categoryA,f,genfile1.csv,0,,,,,,,,,0,1,1,0,0,3,3,26,,,,,,,,,,,,,,,,,,,,,,,,f,1,0.13176612497773021,,,,,,,,,,,,,,,,,,105,001,2021_Sep_27_1459,joplin1,2021.2.3,59.90666554127757,
,0 0 1 1 1 0 0 0 0 1,4,categoryB,j,genfile1.csv,0,,,,,,,,,0,1,1,0,0,4,4,38,,,,,,,,,,,,,,,,,,,,,,,,j,1,0.21933745802380145,,,,,,,,,,,,,,,,,,105,001,2021_Sep_27_1459,joplin1,2021.2.3,59.90666554127757,
,0 0 1 1 1 1 1 1 0 0,6,categoryA,f,genfile1.csv,1,,,,,,,,,0,1,1,0,0,5,5,8,,,,,,,,,,,,,,,,,,,,,,,,f,1,0.2237028750241734,,,,,,,,,,,,,,,,,,105,001,2021_Sep_27_1459,joplin1,2021.2.3,59.90666554127757,
,1 0 1 1 1 1 1 1 1 1,9,categoryA,f,genfile1.csv,0,,,,,,,,,0,1,1,0,0,6,6,18,,,,,,,,,,,,,,,,,,,,,,,,f,1,0.30534608400193974,,,,,,,,,,,,,,,,,,105,001,2021_Sep_27_1459,joplin1,2021.2.3,59.90666554127757,
,1 1 1 0 0 0 0 1 1 1,6,categoryA,f,genfile1.csv,1,,,,,,,,,0,1,1,0,0,7,7,5,,,,,,,,,,,,,,,,,,,,,,,,f,1,0.2373465410200879,,,,,,,,,,,,,,,,,,105,001,2021_Sep_27_1459,joplin1,2021.2.3,59.90666554127757,
,0 1 1 1 1 1 1 1 1 0,8,categoryA,f,genfile1.csv,1,,,,,,,,,0,1,1,0,0,8,8,2,,,,,,,,,,,,,,,,,,,,,,,,f,1,0.423022500006482,,,,,,,,,,,,,,,,,,105,001,2021_Sep_27_1459,joplin1,2021.2.3,59.90666554127757,
,0 1 1 0 1 0 0 1 1 1,6,categoryA,f,genfile1.csv,0,,,,,,,,,0,1,1,0,0,9,9,31,,,,,,,,,,,,,,,,,,,,,,,,f,1,1.0504714169655927,,,,,,,,,,,,,,,,,,105,001,2021_Sep_27_1459,joplin1,2021.2.3,59.90666554127757,
,0 1 1 1 1 0 1 1 0 0,6,categoryA,f,genfile1.csv,0,,,,,,,,,0,1,1,0,0,10,10,35,,,,,,,,,,,,,,,,,,,,,,,,j,0,0.350215999991633,,,,,,,,,,,,,,,,,,105,001,2021_Sep_27_1459,joplin1,2021.2.3,59.90666554127757,
,0 0 0 0 0 1 0 0 0 1,2,categoryB,j,genfile1.csv,0,,,,,,,,,0,1,1,0,0,11,11,46,,,,,,,,,,,,,,,,,,,,,,,,j,1,0.5314846250112168,,,,,,,,,,,,,,,,,,105,001,2021_Sep_27_1459,joplin1,2021.2.3,59.90666554127757,
,0 0 0 0 0 1 1 0 0 0,2,categoryB,j,genfile1.csv,0,,,,,,,,,0,1,1,0,0,12,12,48,,,,,,,,,,,,,,,,,,,,,,,,j,1,0.2992330840206705,,,,,,,,,,,,,,,,,,105,001,2021_Sep_27_1459,joplin1,2021.2.3,59.90666554127757,
,1 1 0 0 1 0 1 1 0 1,6,categoryA,f,genfile1.csv,0,,,,,,,,,0,1,1,0,0,13,13,32,,,,,,,,,,,,,,,,,,,,,,,,j,0,0.2104319580248557,,,,,,,,,,,,,,,,,,105,001,2021_Sep_27_1459,joplin1,2021.2.3,59.90666554127757,
,0 0 0 0 0 1 1 0 0 1,3,categoryB,j,genfile1.csv,0,,,,,,,,,0,1,1,0,0,14,14,43,,,,,,,,,,,,,,,,,,,,,,,,j,1,0.016306874982547015,,,,,,,,,,,,,,,,,,105,001,2021_Sep_27_1459,joplin1,2021.2.3,59.90666554127757,
,0 0 0 0 0 0 1 0 0 0,1,categoryB,j,genfile1.csv,0,,,,,,,,,0,1,1,0,0,15,15,54,,,,,,,,,,,,,,,,,,,,,,,,j,1,0.6366032499936409,,,,,,,,,,,,,,,,,,105,001,2021_Sep_27_1459,joplin1,2021.2.3,59.90666554127757,
,0 1 0 0 0 0 1 1 0 0,3,categoryB,j,genfile1.csv,0,,,,,,,,,0,1,1,0,0,16,16,45,,,,,,,,,,,,,,,,,,,,,,,,j,1,0.09393270796863362,,,,,,,,,,,,,,,,,,105,001,2021_Sep_27_1459,joplin1,2021.2.3,59.90666554127757,
,1 0 0 1 0 0 0 0 0 0,2,categoryB,j,genfile1.csv,0,,,,,,,,,0,1,1,0,0,17,17,50,,,,,,,,,,,,,,,,,,,,,,,,j,1,0.6704589999862947,,,,,,,,,,,,,,,,,,105,001,2021_Sep_27_1459,joplin1,2021.2.3,59.90666554127757,
,0 0 1 1 0 0 1 0 0 0,3,categoryB,j,genfile1.csv,0,,,,,,,,,0,1,1,0,0,18,18,44,,,,,,,,,,,,,,,,,,,,,,,,j,1,0.3995515839778818,,,,,,,,,,,,,,,,,,105,001,2021_Sep_27_1459,joplin1,2021.2.3,59.90666554127757,
,0 1 1 0 1 1 1 1 0 1,7,categoryA,f,genfile1.csv,0,,,,,,,,,0,1,1,0,0,19,19,27,,,,,,,,,,,,,,,,,,,,,,,,None,0,,,,,,,,,,,,,,,,,,,105,001,2021_Sep_27_1459,joplin1,2021.2.3,59.90666554127757,
,1 1 0 0 0 0 0 0 1 1,4,categoryB,j,genfile1.csv,1,,,,,,,,,0,1,1,0,0,20,20,15,,,,,,,,,,,,,,,,,,,,,,,,j,1,0.6190133749623783,,,,,,,,,,,,,,,,,,105,001,2021_Sep_27_1459,joplin1,2021.2.3,59.90666554127757,
,0 1 0 0 0 1 0 1 1 0,4,categoryB,j,genfile1.csv,0,,,,,,,,,0,1,1,0,0,21,21,40,,,,,,,,,,,,,,,,,,,,,,,,f,0,0.11096420796820894,,,,,,,,,,,,,,,,,,105,001,2021_Sep_27_1459,joplin1,2021.2.3,59.90666554127757,
,1 1 1 1 0 1 1 0 1 1,8,categoryA,f,genfile1.csv,0,,,,,,,,,0,1,1,0,0,22,22,22,,,,,,,,,,,,,,,,,,,,,,,,f,1,1.158260457974393,,,,,,,,,,,,,,,,,,105,001,2021_Sep_27_1459,joplin1,2021.2.3,59.90666554127757,
,0 0 0 1 0 0 1 0 0 0,2,categoryB,j,genfile1.csv,1,,,,,,,,,0,1,1,0,0,23,23,13,,,,,,,,,,,,,,,,,,,,,,,,j,1,0.5493101670290343,,,,,,,,,,,,,,,,,,105,001,2021_Sep_27_1459,joplin1,2021.2.3,59.90666554127757,
,1 1 1 1 1 1 1 1 1 0,9,categoryA,f,genfile1.csv,0,,,,,,,,,0,1,1,0,0,24,24,20,,,,,,,,,,,,,,,,,,,,,,,,f,1,0.4125548329902813,,,,,,,,,,,,,,,,,,105,001,2021_Sep_27_1459,joplin1,2021.2.3,59.90666554127757,
,0 0 0 1 1 1 1 0 0 0,4,categoryB,j,genfile1.csv,1,,,,,,,,,0,1,1,0,0,25,25,12,,,,,,,,,,,,,,,,,,,,,,,,j,1,0.3302477090037428,,,,,,,,,,,,,,,,,,105,001,2021_Sep_27_1459,joplin1,2021.2.3,59.90666554127757,
,0 0 0 1 0 0 0 0 0 0,1,categoryB,j,genfile1.csv,0,,,,,,,,,0,1,1,0,0,26,26,51,,,,,,,,,,,,,,,,,,,,,,,,j,1,0.31250924995401874,,,,,,,,,,,,,,,,,,105,001,2021_Sep_27_1459,joplin1,2021.2.3,59.90666554127757,
,1 1 0 1 1 1 1 1 1 1,9,categoryA,f,genfile1.csv,0,,,,,,,,,0,1,1,0,0,27,27,16,,,,,,,,,,,,,,,,,,,,,,,,f,1,0.0805506250471808,,,,,,,,,,,,,,,,,,105,001,2021_Sep_27_1459,joplin1,2021.2.3,59.90666554127757,
,0 1 1 1 0 1 1 1 0 1,7,categoryA,f,genfile1.csv,0,,,,,,,,,0,1,1,0,0,28,28,29,,,,,,,,,,,,,,,,,,,,,,,,f,1,0.7274226250010543,,,,,,,,,,,,,,,,,,105,001,2021_Sep_27_1459,joplin1,2021.2.3,59.90666554127757,
,0 0 0 0 1 0 0 0 0 0,1,categoryB,j,genfile1.csv,0,,,,,,,,,0,1,1,0,0,29,29,52,,,,,,,,,,,,,,,,,,,,,,,,j,1,0.510984875028953,,,,,,,,,,,,,,,,,,105,001,2021_Sep_27_1459,joplin1,2021.2.3,59.90666554127757,
,1 1 0 1 0 0 0 0 0 0,3,categoryB,j,genfile1.csv,0,,,,,,,,,0,1,1,0,0,30,30,41,,,,,,,,,,,,,,,,,,,,,,,,j,1,0.231044375046622,,,,,,,,,,,,,,,,,,105,001,2021_Sep_27_1459,joplin1,2021.2.3,59.90666554127757,
,1 1 1 1 1 1 1 1 0 0,8,categoryA,f,genfile1.csv,0,,,,,,,,,0,1,1,0,0,31,31,25,,,,,,,,,,,,,,,,,,,,,,,,f,1,0.2913074999814853,,,,,,,,,,,,,,,,,,105,001,2021_Sep_27_1459,joplin1,2021.2.3,59.90666554127757,
,0 0 0 0 1 0 1 0 0 1,3,categoryB,j,genfile1.csv,0,,,,,,,,,0,1,1,0,0,32,32,42,,,,,,,,,,,,,,,,,,,,,,,,j,1,0.2913286249968223,,,,,,,,,,,,,,,,,,105,001,2021_Sep_27_1459,joplin1,2021.2.3,59.90666554127757,
,1 1 0 1 0 0 1 0 1 1,6,categoryA,f,genfile1.csv,1,,,,,,,,,0,1,1,0,0,33,33,4,,,,,,,,,,,,,,,,,,,,,,,,f,1,0.3742219159612432,,,,,,,,,,,,,,,,,,105,001,2021_Sep_27_1459,joplin1,2021.2.3,59.90666554127757,
,1 0 0 0 0 0 0 0 0 1,2,categoryB,j,genfile1.csv,1,,,,,,,,,0,1,1,0,0,34,34,9,,,,,,,,,,,,,,,,,,,,,,,,j,1,0.493234624969773,,,,,,,,,,,,,,,,,,105,001,2021_Sep_27_1459,joplin1,2021.2.3,59.90666554127757,
,0 0 0 0 0 0 0 0 1 0,1,categoryB,j,genfile1.csv,0,,,,,,,,,0,1,1,0,0,35,35,53,,,,,,,,,,,,,,,,,,,,,,,,f,0,0.8459889169898815,,,,,,,,,,,,,,,,,,105,001,2021_Sep_27_1459,joplin1,2021.2.3,59.90666554127757,
,1 1 1 1 1 1 0 1 1 1,9,categoryA,f,genfile1.csv,0,,,,,,,,,0,1,1,0,0,36,36,17,,,,,,,,,,,,,,,,,,,,,,,,f,1,1.8323581249569543,,,,,,,,,,,,,,,,,,105,001,2021_Sep_27_1459,joplin1,2021.2.3,59.90666554127757,
,1 0 1 0 0 1 0 0 0 1,4,categoryB,j,genfile1.csv,0,,,,,,,,,0,1,1,0,0,37,37,36,,,,,,,,,,,,,,,,,,,,,,,,j,1,0.3315034999977797,,,,,,,,,,,,,,,,,,105,001,2021_Sep_27_1459,joplin1,2021.2.3,59.90666554127757,
,1 0 1 1 1 1 1 1 0 1,8,categoryA,f,genfile1.csv,1,,,,,,,,,0,1,1,0,0,38,38,3,,,,,,,,,,,,,,,,,,,,,,,,f,1,0.34813241701340303,,,,,,,,,,,,,,,,,,105,001,2021_Sep_27_1459,joplin1,2021.2.3,59.90666554127757,
,0 1 1 0 1 1 1 1 1 1,8,categoryA,f,genfile1.csv,0,,,,,,,,,0,1,1,0,0,39,39,23,,,,,,,,,,,,,,,,,,,,,,,,f,1,0.6596193329896778,,,,,,,,,,,,,,,,,,105,001,2021_Sep_27_1459,joplin1,2021.2.3,59.90666554127757,
,0 1 0 0 0 0 0 0 1 0,2,categoryB,j,genfile1.csv,1,,,,,,,,,0,1,1,0,0,40,40,10,,,,,,,,,,,,,,,,,,,,,,,,j,1,0.598656749993097,,,,,,,,,,,,,,,,,,105,001,2021_Sep_27_1459,joplin1,2021.2.3,59.90666554127757,
,1 1 0 1 0 0 1 1 1 1,7,categoryA,f,genfile1.csv,0,,,,,,,,,0,1,1,0,0,41,41,28,,,,,,,,,,,,,,,,,,,,,,,,f,1,0.6585404999786988,,,,,,,,,,,,,,,,,,105,001,2021_Sep_27_1459,joplin1,2021.2.3,59.90666554127757,
,0 0 1 0 1 1 0 1 0 0,4,categoryB,j,genfile1.csv,1,,,,,,,,,0,1,1,0,0,42,42,11,,,,,,,,,,,,,,,,,,,,,,,,j,1,0.6699714159476571,,,,,,,,,,,,,,,,,,105,001,2021_Sep_27_1459,joplin1,2021.2.3,59.90666554127757,
,0 0 1 1 1 1 1 1 1 1,8,categoryA,f,genfile1.csv,0,,,,,,,,,0,1,1,0,0,43,43,24,,,,,,,,,,,,,,,,,,,,,,,,f,1,0.7838833329733461,,,,,,,,,,,,,,,,,,105,001,2021_Sep_27_1459,joplin1,2021.2.3,59.90666554127757,
,0 0 0 1 0 0 1 1 1 0,4,categoryB,j,genfile1.csv,0,,,,,,,,,0,1,1,0,0,44,44,39,,,,,,,,,,,,,,,,,,,,,,,,j,1,0.5159201669739559,,,,,,,,,,,,,,,,,,105,001,2021_Sep_27_1459,joplin1,2021.2.3,59.90666554127757,
,1 0 0 1 1 1 1 1 0 1,7,categoryA,f,genfile1.csv,0,,,,,,,,,0,1,1,0,0,45,45,30,,,,,,,,,,,,,,,,,,,,,,,,j,0,0.8656777500291355,,,,,,,,,,,,,,,,,,105,001,2021_Sep_27_1459,joplin1,2021.2.3,59.90666554127757,
,1 1 0 1 1 1 0 1 1 1,8,categoryA,f,genfile1.csv,0,,,,,,,,,0,1,1,0,0,46,46,21,,,,,,,,,,,,,,,,,,,,,,,,f,1,1.2759314160211943,,,,,,,,,,,,,,,,,,105,001,2021_Sep_27_1459,joplin1,2021.2.3,59.90666554127757,
,1 1 1 1 1 0 0 1 0 0,6,categoryA,f,genfile1.csv,0,,,,,,,,,0,1,1,0,0,47,47,34,,,,,,,,,,,,,,,,,,,,,,,,j,0,0.3384983329451643,,,,,,,,,,,,,,,,,,105,001,2021_Sep_27_1459,joplin1,2021.2.3,59.90666554127757,
,1 1 1 1 0 1 1 1 1 1,9,categoryA,f,genfile1.csv,0,,,,,,,,,0,1,1,0,0,48,48,19,,,,,,,,,,,,,,,,,,,,,,,,f,1,0.11353404098190367,,,,,,,,,,,,,,,,,,105,001,2021_Sep_27_1459,joplin1,2021.2.3,59.90666554127757,
,1 0 0 0 0 1 0 0 0 0,2,categoryB,j,genfile1.csv,0,,,,,,,,,0,1,1,0,0,49,49,49,,,,,,,,,,,,,,,,,,,,,,,,j,1,0.5281129580107518,,,,,,,,,,,,,,,,,,105,001,2021_Sep_27_1459,joplin1,2021.2.3,59.90666554127757,
,0 0 1 0 0 0 1 0 1 1,4,categoryB,j,genfile1.csv,0,,,,,,,,,0,1,1,0,0,50,50,37,,,,,,,,,,,,,,,,,,,,,,,,f,0,0.11871962499571964,,,,,,,,,,,,,,,,,,105,001,2021_Sep_27_1459,joplin1,2021.2.3,59.90666554127757,
,1 0 1 0 0 1 1 0 1 1,6,categoryA,f,genfile1.csv,0,,,,,,,,,0,1,1,0,0,51,51,33,,,,,,,,,,,,,,,,,,,,,,,,f,1,0.11854429199593142,,,,,,,,,,,,,,,,,,105,001,2021_Sep_27_1459,joplin1,2021.2.3,59.90666554127757,
,0 0 1 0 0 0 0 1 0 0,2,categoryB,j,genfile1.csv,1,,,,,,,,,0,1,1,0,0,52,52,14,,,,,,,,,,,,,,,,,,,,,,,,j,1,0.33553495799424127,,,,,,,,,,,,,,,,,,105,001,2021_Sep_27_1459,joplin1,2021.2.3,59.90666554127757,
,1 1 1 0 1 1 0 1 1 1,8,categoryA,f,genfile1.csv,1,,,,,,,,,0,1,1,0,0,53,53,6,,,,,,,,,,,,,,,,,,,,,,,,f,1,0.3434997080476023,,,,,,,,,,,,,,,,,,105,001,2021_Sep_27_1459,joplin1,2021.2.3,59.90666554127757,
,1 1 0 1 1 1 1 0 1 1,8,categoryA,f,genfile1.csv,1,,,,,,,,,0,1,1,0,0,54,54,7,,,,,,,,,,,,,,,,,,,,,,,,f,1,0.7828488750383258,,,,,,,,,,,,,,,,,,105,001,2021_Sep_27_1459,joplin1,2021.2.3,59.90666554127757,
,1 0 0 0 0 0 0 0 0 0,1,categoryB,j,genfile1.csv,0,,,,,,,,,0,1,1,0,0,55,55,55,,,,,,,,,,,,,,,,,,,,,,,,j,1,0.47400520800147206,,,,,,,,,,,,,,,,,,105,001,2021_Sep_27_1459,joplin1,2021.2.3,59.90666554127757,
,,,,,genfile1.csv,,,,,,,,,,0,1,1,0,,,,,,,,,,,,,,,,,,space,16.302046875003725,,,,,,,,,,,,,,,,,,,,,,,,,,,,,105,001,2021_Sep_27_1459,joplin1,2021.2.3,59.90666554127757,
,,,,,,,,,,,,,,,,,,,,,,,,,,,,,,,,,,,,,,,,,,,,,,,,,None,,,,,,,,,,,,,,,,,105,001,2021_Sep_27_1459,joplin1,2021.2.3,59.90666554127757,
,,,,,,,,,,,,,,,,,,,,,,,,,,,,,,,,,,,,,,,,,,,,,,,,,,None,,,,,,,,,,,,,,,,105,001,2021_Sep_27_1459,joplin1,2021.2.3,59.90666554127757,
,,,,,,,,,,,,,,,,,,,,,,,,,,,,,,,,,,,,,,,,,,,,,,,,,,,0.7,radio,0.3,Are you Hispanic/Latino?,0,None,None,None,None,,,,,,,105,001,2021_Sep_27_1459,joplin1,2021.2.3,59.90666554127757,
,,,,,,,,,,,,,,,,,,,,,,,,,,,,,,,,,,,,,,,,,,,,,,,,,,,0.7,radio,0.3,Are you an American Indian or Alaska Native?,1,None,None,None,None,,,,,,,105,001,2021_Sep_27_1459,joplin1,2021.2.3,59.90666554127757,
,,,,,,,,,,,,,,,,,,,,,,,,,,,,,,,,,,,,,,,,,,,,,,,,,,,0.7,radio,0.3,Are you Asian?,2,None,None,None,None,,,,,,,105,001,2021_Sep_27_1459,joplin1,2021.2.3,59.90666554127757,
,,,,,,,,,,,,,,,,,,,,,,,,,,,,,,,,,,,,,,,,,,,,,,,,,,,0.7,radio,0.3,Are you Black or African American?,3,None,None,None,None,,,,,,,105,001,2021_Sep_27_1459,joplin1,2021.2.3,59.90666554127757,
,,,,,,,,,,,,,,,,,,,,,,,,,,,,,,,,,,,,,,,,,,,,,,,,,,,0.7,radio,0.3,Are you a Native Hawaiian or other Pacific Islander?,4,None,None,None,None,,,,,,,105,001,2021_Sep_27_1459,joplin1,2021.2.3,59.90666554127757,
,,,,,,,,,,,,,,,,,,,,,,,,,,,,,,,,,,,,,,,,,,,,,,,,,,,0.7,radio,0.3,Are you White?,5,None,None,None,None,,,,,,,105,001,2021_Sep_27_1459,joplin1,2021.2.3,59.90666554127757,
,,,,,,,,,,,,,,,,,,,,,,,,,,,,,,,,,,,,,,,,,,,,,,,,,,,0.85,radio,0.3,"Do you have any history of neurological issues such as stroke, head injury or a neurodegenerative disorder?",6,None,None,None,None,,,,,,,105,001,2021_Sep_27_1459,joplin1,2021.2.3,59.90666554127757,
,,,,,,,,,,,,,,,,,,,,,,,,,,,,,,,,,,,,,,,,,,,,,,,,,,,,,,,,,,,,None,,,,,,105,001,2021_Sep_27_1459,joplin1,2021.2.3,59.90666554127757,
,,,,,,,,,,,,,,,,,,,,,,,,,,,,,,,,,,,,,,,,,,,,,,,,,,,,,,,,,,,,,None,,,,,105,001,2021_Sep_27_1459,joplin1,2021.2.3,59.90666554127757,
,,,,,,,,,,,,,,,,,,,,,,,,,,,,,,,,,,,,,,,,,,,,,,,,,,,,,,,,,,,,,,,,None,,105,001,2021_Sep_27_1459,joplin1,2021.2.3,59.90666554127757,
,,,,,,,,,,,,,,,,,,,,,,,,,,,,,,,,,,,,,,,,,,,,,,,,,,,,,,,,,,,,,,,,,,,,,,,,
