train_set,stim_id,sums_feat,category,correct_key,gen_file,train_item,train_runs.thisRepN,train_runs.thisTrialN,train_runs.thisN,train_runs.thisIndex,train_trials.thisRepN,train_trials.thisTrialN,train_trials.thisN,train_trials.thisIndex,test_runs.thisRepN,test_runs.thisTrialN,test_runs.thisN,test_runs.thisIndex,test_trials.thisRepN,test_trials.thisTrialN,test_trials.thisN,test_trials.thisIndex,welcome_key.keys,welcome_key.rt,welcome_key.started,welcome_key.stopped,train_inst1_key.keys,train_inst1_key.rt,train_inst2_key.keys,train_inst2_key.rt,train_begin_key.keys,train_begin_key.rt,train_key.keys,train_key.corr,train_key.rt,break_key.keys,break_key.rt,key_resp.keys,key_resp.rt,test_inst1_key.keys,test_inst1_key.rt,test_inst2_key.keys,test_inst2_key.rt,test_begin_key.keys,test_begin_key.rt,test_key.keys,test_key.corr,test_key.rt,test_end_key.keys,test_end_key.rt,demo_inst1_key.keys,demo_inst1_key.rt,form.questionWidth,form.type,form.respWidth,form.itemText,form.index,form.font,form.markerColor,form.response,form.rt,form_key.keys,form_key.rt,demo_inst2_key.keys,demo_inst2_key.rt,gender_string,age_string,demo4_key.keys,demo4_key.rt,typedWord,participant,session,date,expName,psychopyVersion,frameRate,
,,,,,,,,,,,,,,,,,,,,,,,space,14.211122334003448,180.5130634160014,None,,,,,,,,,,,,,,,,,,,,,,,,,,,,,,,,,,,,,,,,,,,,,106,002,2021_Sep_30_1441,joplin1,2021.2.3,59.78607035076569,
,,,,,,,,,,,,,,,,,,,,,,,,,,,j,7.143919999944046,,,,,,,,,,,,,,,,,,,,,,,,,,,,,,,,,,,,,,,,,,,106,002,2021_Sep_30_1441,joplin1,2021.2.3,59.78607035076569,
,,,,,,,,,,,,,,,,,,,,,,,,,,,,,space,3.0618332920130342,,,,,,,,,,,,,,,,,,,,,,,,,,,,,,,,,,,,,,,,,106,002,2021_Sep_30_1441,joplin1,2021.2.3,59.78607035076569,
,,,,,,,,,,,,,,,,,,,,,,,,,,,,,,,space,3.86778204201255,,,,,,,,,,,,,,,,,,,,,,,,,,,,,,,,,,,,,,,106,002,2021_Sep_30_1441,joplin1,2021.2.3,59.78607035076569,
_train_cond.csv,1 1 1 0 0 0 0 1 1 1,6,categoryA,f,,,0,0,0,0,0,0,0,3,,,,,,,,,,,,,,,,,,,f,1,0.7953374159988016,,,,,,,,,,,,,,,,,,,,,,,,,,,,,,,,,,,,106,002,2021_Sep_30_1441,joplin1,2021.2.3,59.78607035076569,
_train_cond.csv,1 1 0 1 1 1 1 0 1 1,8,categoryA,f,,,0,0,0,0,0,1,1,5,,,,,,,,,,,,,,,,,,,j,0,0.26972183398902416,,,,,,,,,,,,,,,,,,,,,,,,,,,,,,,,,,,,106,002,2021_Sep_30_1441,joplin1,2021.2.3,59.78607035076569,
_train_cond.csv,0 0 1 0 1 1 0 1 0 0,4,categoryB,j,,,0,0,0,0,0,2,2,9,,,,,,,,,,,,,,,,,,,j,1,0.4920674579916522,,,,,,,,,,,,,,,,,,,,,,,,,,,,,,,,,,,,106,002,2021_Sep_30_1441,joplin1,2021.2.3,59.78607035076569,
_train_cond.csv,0 0 1 0 0 0 0 1 0 0,2,categoryB,j,,,0,0,0,0,0,3,3,12,,,,,,,,,,,,,,,,,,,j,1,0.244638166972436,,,,,,,,,,,,,,,,,,,,,,,,,,,,,,,,,,,,106,002,2021_Sep_30_1441,joplin1,2021.2.3,59.78607035076569,
_train_cond.csv,0 0 0 1 0 0 1 0 0 0,2,categoryB,j,,,0,0,0,0,0,4,4,11,,,,,,,,,,,,,,,,,,,j,1,0.3354619169840589,,,,,,,,,,,,,,,,,,,,,,,,,,,,,,,,,,,,106,002,2021_Sep_30_1441,joplin1,2021.2.3,59.78607035076569,
_train_cond.csv,1 0 0 0 0 0 0 0 0 1,2,categoryB,j,,,0,0,0,0,0,5,5,7,,,,,,,,,,,,,,,,,,,j,1,0.307393875089474,,,,,,,,,,,,,,,,,,,,,,,,,,,,,,,,,,,,106,002,2021_Sep_30_1441,joplin1,2021.2.3,59.78607035076569,
_train_cond.csv,1 1 0 0 0 0 0 0 1 1,4,categoryB,j,,,0,0,0,0,0,6,6,13,,,,,,,,,,,,,,,,,,,f,0,0.2515366660663858,,,,,,,,,,,,,,,,,,,,,,,,,,,,,,,,,,,,106,002,2021_Sep_30_1441,joplin1,2021.2.3,59.78607035076569,
_train_cond.csv,1 1 0 1 0 0 1 0 1 1,6,categoryA,f,,,0,0,0,0,0,7,7,2,,,,,,,,,,,,,,,,,,,f,1,0.3165588340489194,,,,,,,,,,,,,,,,,,,,,,,,,,,,,,,,,,,,106,002,2021_Sep_30_1441,joplin1,2021.2.3,59.78607035076569,
_train_cond.csv,1 1 1 0 1 1 0 1 1 1,8,categoryA,f,,,0,0,0,0,0,8,8,4,,,,,,,,,,,,,,,,,,,j,0,0.3886639589909464,,,,,,,,,,,,,,,,,,,,,,,,,,,,,,,,,,,,106,002,2021_Sep_30_1441,joplin1,2021.2.3,59.78607035076569,
_train_cond.csv,1 0 1 1 1 1 1 1 0 1,8,categoryA,f,,,0,0,0,0,0,9,9,1,,,,,,,,,,,,,,,,,,,j,0,0.25665541691705585,,,,,,,,,,,,,,,,,,,,,,,,,,,,,,,,,,,,106,002,2021_Sep_30_1441,joplin1,2021.2.3,59.78607035076569,
_train_cond.csv,0 0 0 1 1 1 1 0 0 0,4,categoryB,j,,,0,0,0,0,0,10,10,10,,,,,,,,,,,,,,,,,,,f,0,0.250022416934371,,,,,,,,,,,,,,,,,,,,,,,,,,,,,,,,,,,,106,002,2021_Sep_30_1441,joplin1,2021.2.3,59.78607035076569,
_train_cond.csv,0 1 1 1 1 1 1 1 1 0,8,categoryA,f,,,0,0,0,0,0,11,11,0,,,,,,,,,,,,,,,,,,,j,0,0.07622154103592038,,,,,,,,,,,,,,,,,,,,,,,,,,,,,,,,,,,,106,002,2021_Sep_30_1441,joplin1,2021.2.3,59.78607035076569,
_train_cond.csv,0 1 0 0 0 0 0 0 1 0,2,categoryB,j,,,0,0,0,0,0,12,12,8,,,,,,,,,,,,,,,,,,,j,1,0.2914401249727234,,,,,,,,,,,,,,,,,,,,,,,,,,,,,,,,,,,,106,002,2021_Sep_30_1441,joplin1,2021.2.3,59.78607035076569,
_train_cond.csv,0 0 1 1 1 1 1 1 0 0,6,categoryA,f,,,0,0,0,0,0,13,13,6,,,,,,,,,,,,,,,,,,,j,0,0.9797162499744445,,,,,,,,,,,,,,,,,,,,,,,,,,,,,,,,,,,,106,002,2021_Sep_30_1441,joplin1,2021.2.3,59.78607035076569,
_train_cond.csv,1 1 0 1 1 1 1 0 1 1,8,categoryA,f,,,0,0,0,0,1,0,14,5,,,,,,,,,,,,,,,,,,,j,0,1.0419727499829605,,,,,,,,,,,,,,,,,,,,,,,,,,,,,,,,,,,,106,002,2021_Sep_30_1441,joplin1,2021.2.3,59.78607035076569,
_train_cond.csv,0 0 0 1 0 0 1 0 0 0,2,categoryB,j,,,0,0,0,0,1,1,15,11,,,,,,,,,,,,,,,,,,,f,0,0.42143341701012105,,,,,,,,,,,,,,,,,,,,,,,,,,,,,,,,,,,,106,002,2021_Sep_30_1441,joplin1,2021.2.3,59.78607035076569,
_train_cond.csv,0 1 0 0 0 0 0 0 1 0,2,categoryB,j,,,0,0,0,0,1,2,16,8,,,,,,,,,,,,,,,,,,,j,1,1.3773335419828072,,,,,,,,,,,,,,,,,,,,,,,,,,,,,,,,,,,,106,002,2021_Sep_30_1441,joplin1,2021.2.3,59.78607035076569,
_train_cond.csv,0 0 1 1 1 1 1 1 0 0,6,categoryA,f,,,0,0,0,0,1,3,17,6,,,,,,,,,,,,,,,,,,,f,1,0.27950325002893806,,,,,,,,,,,,,,,,,,,,,,,,,,,,,,,,,,,,106,002,2021_Sep_30_1441,joplin1,2021.2.3,59.78607035076569,
_train_cond.csv,0 0 0 1 1 1 1 0 0 0,4,categoryB,j,,,0,0,0,0,1,4,18,10,,,,,,,,,,,,,,,,,,,j,1,0.27436833397950977,,,,,,,,,,,,,,,,,,,,,,,,,,,,,,,,,,,,106,002,2021_Sep_30_1441,joplin1,2021.2.3,59.78607035076569,
_train_cond.csv,1 1 1 0 1 1 0 1 1 1,8,categoryA,f,,,0,0,0,0,1,5,19,4,,,,,,,,,,,,,,,,,,,f,1,0.24452570802532136,,,,,,,,,,,,,,,,,,,,,,,,,,,,,,,,,,,,106,002,2021_Sep_30_1441,joplin1,2021.2.3,59.78607035076569,
_train_cond.csv,1 0 1 1 1 1 1 1 0 1,8,categoryA,f,,,0,0,0,0,1,6,20,1,,,,,,,,,,,,,,,,,,,f,1,0.23973412497434765,,,,,,,,,,,,,,,,,,,,,,,,,,,,,,,,,,,,106,002,2021_Sep_30_1441,joplin1,2021.2.3,59.78607035076569,
_train_cond.csv,1 1 0 0 0 0 0 0 1 1,4,categoryB,j,,,0,0,0,0,1,7,21,13,,,,,,,,,,,,,,,,,,,j,1,0.2997217079391703,,,,,,,,,,,,,,,,,,,,,,,,,,,,,,,,,,,,106,002,2021_Sep_30_1441,joplin1,2021.2.3,59.78607035076569,
_train_cond.csv,0 1 1 1 1 1 1 1 1 0,8,categoryA,f,,,0,0,0,0,1,8,22,0,,,,,,,,,,,,,,,,,,,f,1,0.2609287080122158,,,,,,,,,,,,,,,,,,,,,,,,,,,,,,,,,,,,106,002,2021_Sep_30_1441,joplin1,2021.2.3,59.78607035076569,
_train_cond.csv,1 1 0 1 0 0 1 0 1 1,6,categoryA,f,,,0,0,0,0,1,9,23,2,,,,,,,,,,,,,,,,,,,j,0,0.27985891595017165,,,,,,,,,,,,,,,,,,,,,,,,,,,,,,,,,,,,106,002,2021_Sep_30_1441,joplin1,2021.2.3,59.78607035076569,
_train_cond.csv,1 0 0 0 0 0 0 0 0 1,2,categoryB,j,,,0,0,0,0,1,10,24,7,,,,,,,,,,,,,,,,,,,j,1,0.3913851670222357,,,,,,,,,,,,,,,,,,,,,,,,,,,,,,,,,,,,106,002,2021_Sep_30_1441,joplin1,2021.2.3,59.78607035076569,
_train_cond.csv,0 0 1 0 1 1 0 1 0 0,4,categoryB,j,,,0,0,0,0,1,11,25,9,,,,,,,,,,,,,,,,,,,f,0,0.2691639589611441,,,,,,,,,,,,,,,,,,,,,,,,,,,,,,,,,,,,106,002,2021_Sep_30_1441,joplin1,2021.2.3,59.78607035076569,
_train_cond.csv,1 1 1 0 0 0 0 1 1 1,6,categoryA,f,,,0,0,0,0,1,12,26,3,,,,,,,,,,,,,,,,,,,f,1,0.44000820897053927,,,,,,,,,,,,,,,,,,,,,,,,,,,,,,,,,,,,106,002,2021_Sep_30_1441,joplin1,2021.2.3,59.78607035076569,
_train_cond.csv,0 0 1 0 0 0 0 1 0 0,2,categoryB,j,,,0,0,0,0,1,13,27,12,,,,,,,,,,,,,,,,,,,f,0,1.0752018749481067,,,,,,,,,,,,,,,,,,,,,,,,,,,,,,,,,,,,106,002,2021_Sep_30_1441,joplin1,2021.2.3,59.78607035076569,
_train_cond.csv,1 1 0 1 0 0 1 0 1 1,6,categoryA,f,,,0,0,0,0,2,0,28,2,,,,,,,,,,,,,,,,,,,j,0,0.8858605000423267,,,,,,,,,,,,,,,,,,,,,,,,,,,,,,,,,,,,106,002,2021_Sep_30_1441,joplin1,2021.2.3,59.78607035076569,
_train_cond.csv,1 1 1 0 1 1 0 1 1 1,8,categoryA,f,,,0,0,0,0,2,1,29,4,,,,,,,,,,,,,,,,,,,j,0,0.8464288749964908,,,,,,,,,,,,,,,,,,,,,,,,,,,,,,,,,,,,106,002,2021_Sep_30_1441,joplin1,2021.2.3,59.78607035076569,
_train_cond.csv,0 0 1 0 0 0 0 1 0 0,2,categoryB,j,,,0,0,0,0,2,2,30,12,,,,,,,,,,,,,,,,,,,f,0,0.30773512506857514,,,,,,,,,,,,,,,,,,,,,,,,,,,,,,,,,,,,106,002,2021_Sep_30_1441,joplin1,2021.2.3,59.78607035076569,
_train_cond.csv,0 1 1 1 1 1 1 1 1 0,8,categoryA,f,,,0,0,0,0,2,3,31,0,,,,,,,,,,,,,,,,,,,j,0,0.5481157919857651,,,,,,,,,,,,,,,,,,,,,,,,,,,,,,,,,,,,106,002,2021_Sep_30_1441,joplin1,2021.2.3,59.78607035076569,
_train_cond.csv,1 1 0 1 1 1 1 0 1 1,8,categoryA,f,,,0,0,0,0,2,4,32,5,,,,,,,,,,,,,,,,,,,j,0,0.17141275003086776,,,,,,,,,,,,,,,,,,,,,,,,,,,,,,,,,,,,106,002,2021_Sep_30_1441,joplin1,2021.2.3,59.78607035076569,
_train_cond.csv,0 1 0 0 0 0 0 0 1 0,2,categoryB,j,,,0,0,0,0,2,5,33,8,,,,,,,,,,,,,,,,,,,f,0,0.2584880830254406,,,,,,,,,,,,,,,,,,,,,,,,,,,,,,,,,,,,106,002,2021_Sep_30_1441,joplin1,2021.2.3,59.78607035076569,
_train_cond.csv,0 0 1 0 1 1 0 1 0 0,4,categoryB,j,,,0,0,0,0,2,6,34,9,,,,,,,,,,,,,,,,,,,f,0,0.2925800000084564,,,,,,,,,,,,,,,,,,,,,,,,,,,,,,,,,,,,106,002,2021_Sep_30_1441,joplin1,2021.2.3,59.78607035076569,
_train_cond.csv,0 0 0 1 1 1 1 0 0 0,4,categoryB,j,,,0,0,0,0,2,7,35,10,,,,,,,,,,,,,,,,,,,j,1,0.27066312497481704,,,,,,,,,,,,,,,,,,,,,,,,,,,,,,,,,,,,106,002,2021_Sep_30_1441,joplin1,2021.2.3,59.78607035076569,
_train_cond.csv,0 0 0 1 0 0 1 0 0 0,2,categoryB,j,,,0,0,0,0,2,8,36,11,,,,,,,,,,,,,,,,,,,j,1,0.21791062504053116,,,,,,,,,,,,,,,,,,,,,,,,,,,,,,,,,,,,106,002,2021_Sep_30_1441,joplin1,2021.2.3,59.78607035076569,
_train_cond.csv,1 0 0 0 0 0 0 0 0 1,2,categoryB,j,,,0,0,0,0,2,9,37,7,,,,,,,,,,,,,,,,,,,j,1,0.06280295795295388,,,,,,,,,,,,,,,,,,,,,,,,,,,,,,,,,,,,106,002,2021_Sep_30_1441,joplin1,2021.2.3,59.78607035076569,
_train_cond.csv,1 1 0 0 0 0 0 0 1 1,4,categoryB,j,,,0,0,0,0,2,10,38,13,,,,,,,,,,,,,,,,,,,j,1,0.23416612506844103,,,,,,,,,,,,,,,,,,,,,,,,,,,,,,,,,,,,106,002,2021_Sep_30_1441,joplin1,2021.2.3,59.78607035076569,
_train_cond.csv,1 0 1 1 1 1 1 1 0 1,8,categoryA,f,,,0,0,0,0,2,11,39,1,,,,,,,,,,,,,,,,,,,f,1,0.046301792026497424,,,,,,,,,,,,,,,,,,,,,,,,,,,,,,,,,,,,106,002,2021_Sep_30_1441,joplin1,2021.2.3,59.78607035076569,
_train_cond.csv,1 1 1 0 0 0 0 1 1 1,6,categoryA,f,,,0,0,0,0,2,12,40,3,,,,,,,,,,,,,,,,,,,f,1,0.24898745794780552,,,,,,,,,,,,,,,,,,,,,,,,,,,,,,,,,,,,106,002,2021_Sep_30_1441,joplin1,2021.2.3,59.78607035076569,
_train_cond.csv,0 0 1 1 1 1 1 1 0 0,6,categoryA,f,,,0,0,0,0,2,13,41,6,,,,,,,,,,,,,,,,,,,f,1,0.23016058292705566,,,,,,,,,,,,,,,,,,,,,,,,,,,,,,,,,,,,106,002,2021_Sep_30_1441,joplin1,2021.2.3,59.78607035076569,
_train_cond.csv,,,,,,,0,0,0,0,,,,,,,,,,,,,,,,,,,,,,,,,,space,12.291733874939382,,,,,,,,,,,,,,,,,,,,,,,,,,,,,,,,,,106,002,2021_Sep_30_1441,joplin1,2021.2.3,59.78607035076569,
_train_cond.csv,0 0 1 1 1 1 1 1 0 0,6,categoryA,f,,,0,1,1,7,0,0,0,6,,,,,,,,,,,,,,,,,,,f,1,0.9308714169310406,,,,,,,,,,,,,,,,,,,,,,,,,,,,,,,,,,,,106,002,2021_Sep_30_1441,joplin1,2021.2.3,59.78607035076569,
_train_cond.csv,0 0 0 1 1 1 1 0 0 0,4,categoryB,j,,,0,1,1,7,0,1,1,10,,,,,,,,,,,,,,,,,,,j,1,0.22072766593191773,,,,,,,,,,,,,,,,,,,,,,,,,,,,,,,,,,,,106,002,2021_Sep_30_1441,joplin1,2021.2.3,59.78607035076569,
_train_cond.csv,0 0 0 1 0 0 1 0 0 0,2,categoryB,j,,,0,1,1,7,0,2,2,11,,,,,,,,,,,,,,,,,,,j,1,0.3205282499548048,,,,,,,,,,,,,,,,,,,,,,,,,,,,,,,,,,,,106,002,2021_Sep_30_1441,joplin1,2021.2.3,59.78607035076569,
_train_cond.csv,1 1 1 0 1 1 0 1 1 1,8,categoryA,f,,,0,1,1,7,0,3,3,4,,,,,,,,,,,,,,,,,,,f,1,0.3220439580036327,,,,,,,,,,,,,,,,,,,,,,,,,,,,,,,,,,,,106,002,2021_Sep_30_1441,joplin1,2021.2.3,59.78607035076569,
_train_cond.csv,0 0 1 0 0 0 0 1 0 0,2,categoryB,j,,,0,1,1,7,0,4,4,12,,,,,,,,,,,,,,,,,,,f,0,0.28933304199017584,,,,,,,,,,,,,,,,,,,,,,,,,,,,,,,,,,,,106,002,2021_Sep_30_1441,joplin1,2021.2.3,59.78607035076569,
_train_cond.csv,0 1 1 1 1 1 1 1 1 0,8,categoryA,f,,,0,1,1,7,0,5,5,0,,,,,,,,,,,,,,,,,,,f,1,0.18740545795299113,,,,,,,,,,,,,,,,,,,,,,,,,,,,,,,,,,,,106,002,2021_Sep_30_1441,joplin1,2021.2.3,59.78607035076569,
_train_cond.csv,1 1 0 1 0 0 1 0 1 1,6,categoryA,f,,,0,1,1,7,0,6,6,2,,,,,,,,,,,,,,,,,,,j,0,0.28123241604771465,,,,,,,,,,,,,,,,,,,,,,,,,,,,,,,,,,,,106,002,2021_Sep_30_1441,joplin1,2021.2.3,59.78607035076569,
_train_cond.csv,0 0 1 0 1 1 0 1 0 0,4,categoryB,j,,,0,1,1,7,0,7,7,9,,,,,,,,,,,,,,,,,,,f,0,1.410838000010699,,,,,,,,,,,,,,,,,,,,,,,,,,,,,,,,,,,,106,002,2021_Sep_30_1441,joplin1,2021.2.3,59.78607035076569,
_train_cond.csv,1 1 0 1 1 1 1 0 1 1,8,categoryA,f,,,0,1,1,7,0,8,8,5,,,,,,,,,,,,,,,,,,,f,1,0.7605537920026109,,,,,,,,,,,,,,,,,,,,,,,,,,,,,,,,,,,,106,002,2021_Sep_30_1441,joplin1,2021.2.3,59.78607035076569,
_train_cond.csv,1 1 0 0 0 0 0 0 1 1,4,categoryB,j,,,0,1,1,7,0,9,9,13,,,,,,,,,,,,,,,,,,,f,0,0.4471122920513153,,,,,,,,,,,,,,,,,,,,,,,,,,,,,,,,,,,,106,002,2021_Sep_30_1441,joplin1,2021.2.3,59.78607035076569,
_train_cond.csv,0 1 0 0 0 0 0 0 1 0,2,categoryB,j,,,0,1,1,7,0,10,10,8,,,,,,,,,,,,,,,,,,,j,1,0.23642920795828104,,,,,,,,,,,,,,,,,,,,,,,,,,,,,,,,,,,,106,002,2021_Sep_30_1441,joplin1,2021.2.3,59.78607035076569,
_train_cond.csv,1 0 0 0 0 0 0 0 0 1,2,categoryB,j,,,0,1,1,7,0,11,11,7,,,,,,,,,,,,,,,,,,,j,1,0.2310326249571517,,,,,,,,,,,,,,,,,,,,,,,,,,,,,,,,,,,,106,002,2021_Sep_30_1441,joplin1,2021.2.3,59.78607035076569,
_train_cond.csv,1 0 1 1 1 1 1 1 0 1,8,categoryA,f,,,0,1,1,7,0,12,12,1,,,,,,,,,,,,,,,,,,,f,1,0.33150008297525346,,,,,,,,,,,,,,,,,,,,,,,,,,,,,,,,,,,,106,002,2021_Sep_30_1441,joplin1,2021.2.3,59.78607035076569,
_train_cond.csv,1 1 1 0 0 0 0 1 1 1,6,categoryA,f,,,0,1,1,7,0,13,13,3,,,,,,,,,,,,,,,,,,,f,1,0.2772915840614587,,,,,,,,,,,,,,,,,,,,,,,,,,,,,,,,,,,,106,002,2021_Sep_30_1441,joplin1,2021.2.3,59.78607035076569,
_train_cond.csv,0 0 1 1 1 1 1 1 0 0,6,categoryA,f,,,0,1,1,7,1,0,14,6,,,,,,,,,,,,,,,,,,,f,1,0.4070999580435455,,,,,,,,,,,,,,,,,,,,,,,,,,,,,,,,,,,,106,002,2021_Sep_30_1441,joplin1,2021.2.3,59.78607035076569,
_train_cond.csv,1 1 1 0 1 1 0 1 1 1,8,categoryA,f,,,0,1,1,7,1,1,15,4,,,,,,,,,,,,,,,,,,,f,1,0.25294399994891137,,,,,,,,,,,,,,,,,,,,,,,,,,,,,,,,,,,,106,002,2021_Sep_30_1441,joplin1,2021.2.3,59.78607035076569,
_train_cond.csv,0 0 1 0 0 0 0 1 0 0,2,categoryB,j,,,0,1,1,7,1,2,16,12,,,,,,,,,,,,,,,,,,,j,1,0.336580750066787,,,,,,,,,,,,,,,,,,,,,,,,,,,,,,,,,,,,106,002,2021_Sep_30_1441,joplin1,2021.2.3,59.78607035076569,
_train_cond.csv,1 1 0 1 0 0 1 0 1 1,6,categoryA,f,,,0,1,1,7,1,3,17,2,,,,,,,,,,,,,,,,,,,f,1,0.3288644590647891,,,,,,,,,,,,,,,,,,,,,,,,,,,,,,,,,,,,106,002,2021_Sep_30_1441,joplin1,2021.2.3,59.78607035076569,
_train_cond.csv,1 1 0 0 0 0 0 0 1 1,4,categoryB,j,,,0,1,1,7,1,4,18,13,,,,,,,,,,,,,,,,,,,j,1,0.5290230410173535,,,,,,,,,,,,,,,,,,,,,,,,,,,,,,,,,,,,106,002,2021_Sep_30_1441,joplin1,2021.2.3,59.78607035076569,
_train_cond.csv,1 1 1 0 0 0 0 1 1 1,6,categoryA,f,,,0,1,1,7,1,5,19,3,,,,,,,,,,,,,,,,,,,j,0,0.2492191249039024,,,,,,,,,,,,,,,,,,,,,,,,,,,,,,,,,,,,106,002,2021_Sep_30_1441,joplin1,2021.2.3,59.78607035076569,
_train_cond.csv,0 1 0 0 0 0 0 0 1 0,2,categoryB,j,,,0,1,1,7,1,6,20,8,,,,,,,,,,,,,,,,,,,j,1,0.3486016660463065,,,,,,,,,,,,,,,,,,,,,,,,,,,,,,,,,,,,106,002,2021_Sep_30_1441,joplin1,2021.2.3,59.78607035076569,
_train_cond.csv,0 0 0 1 0 0 1 0 0 0,2,categoryB,j,,,0,1,1,7,1,7,21,11,,,,,,,,,,,,,,,,,,,f,0,0.19594454194884747,,,,,,,,,,,,,,,,,,,,,,,,,,,,,,,,,,,,106,002,2021_Sep_30_1441,joplin1,2021.2.3,59.78607035076569,
_train_cond.csv,1 0 1 1 1 1 1 1 0 1,8,categoryA,f,,,0,1,1,7,1,8,22,1,,,,,,,,,,,,,,,,,,,f,1,0.281916500069201,,,,,,,,,,,,,,,,,,,,,,,,,,,,,,,,,,,,106,002,2021_Sep_30_1441,joplin1,2021.2.3,59.78607035076569,
_train_cond.csv,1 1 0 1 1 1 1 0 1 1,8,categoryA,f,,,0,1,1,7,1,9,23,5,,,,,,,,,,,,,,,,,,,j,0,0.14119804208166897,,,,,,,,,,,,,,,,,,,,,,,,,,,,,,,,,,,,106,002,2021_Sep_30_1441,joplin1,2021.2.3,59.78607035076569,
_train_cond.csv,0 0 0 1 1 1 1 0 0 0,4,categoryB,j,,,0,1,1,7,1,10,24,10,,,,,,,,,,,,,,,,,,,j,1,0.26882125006522983,,,,,,,,,,,,,,,,,,,,,,,,,,,,,,,,,,,,106,002,2021_Sep_30_1441,joplin1,2021.2.3,59.78607035076569,
_train_cond.csv,0 1 1 1 1 1 1 1 1 0,8,categoryA,f,,,0,1,1,7,1,11,25,0,,,,,,,,,,,,,,,,,,,f,1,0.21455887495540082,,,,,,,,,,,,,,,,,,,,,,,,,,,,,,,,,,,,106,002,2021_Sep_30_1441,joplin1,2021.2.3,59.78607035076569,
_train_cond.csv,1 0 0 0 0 0 0 0 0 1,2,categoryB,j,,,0,1,1,7,1,12,26,7,,,,,,,,,,,,,,,,,,,j,1,0.33198100002482533,,,,,,,,,,,,,,,,,,,,,,,,,,,,,,,,,,,,106,002,2021_Sep_30_1441,joplin1,2021.2.3,59.78607035076569,
_train_cond.csv,0 0 1 0 1 1 0 1 0 0,4,categoryB,j,,,0,1,1,7,1,13,27,9,,,,,,,,,,,,,,,,,,,f,0,0.2680145000340417,,,,,,,,,,,,,,,,,,,,,,,,,,,,,,,,,,,,106,002,2021_Sep_30_1441,joplin1,2021.2.3,59.78607035076569,
_train_cond.csv,1 0 0 0 0 0 0 0 0 1,2,categoryB,j,,,0,1,1,7,2,0,28,7,,,,,,,,,,,,,,,,,,,j,1,0.126862374949269,,,,,,,,,,,,,,,,,,,,,,,,,,,,,,,,,,,,106,002,2021_Sep_30_1441,joplin1,2021.2.3,59.78607035076569,
_train_cond.csv,1 1 0 1 1 1 1 0 1 1,8,categoryA,f,,,0,1,1,7,2,1,29,5,,,,,,,,,,,,,,,,,,,j,0,0.2320120839867741,,,,,,,,,,,,,,,,,,,,,,,,,,,,,,,,,,,,106,002,2021_Sep_30_1441,joplin1,2021.2.3,59.78607035076569,
_train_cond.csv,0 0 1 0 0 0 0 1 0 0,2,categoryB,j,,,0,1,1,7,2,2,30,12,,,,,,,,,,,,,,,,,,,f,0,0.11629670800175518,,,,,,,,,,,,,,,,,,,,,,,,,,,,,,,,,,,,106,002,2021_Sep_30_1441,joplin1,2021.2.3,59.78607035076569,
_train_cond.csv,1 1 1 0 1 1 0 1 1 1,8,categoryA,f,,,0,1,1,7,2,3,31,4,,,,,,,,,,,,,,,,,,,f,1,0.04662133299279958,,,,,,,,,,,,,,,,,,,,,,,,,,,,,,,,,,,,106,002,2021_Sep_30_1441,joplin1,2021.2.3,59.78607035076569,
_train_cond.csv,0 1 1 1 1 1 1 1 1 0,8,categoryA,f,,,0,1,1,7,2,4,32,0,,,,,,,,,,,,,,,,,,,f,1,0.2339195420499891,,,,,,,,,,,,,,,,,,,,,,,,,,,,,,,,,,,,106,002,2021_Sep_30_1441,joplin1,2021.2.3,59.78607035076569,
_train_cond.csv,0 0 1 1 1 1 1 1 0 0,6,categoryA,f,,,0,1,1,7,2,5,33,6,,,,,,,,,,,,,,,,,,,f,1,0.3034986670827493,,,,,,,,,,,,,,,,,,,,,,,,,,,,,,,,,,,,106,002,2021_Sep_30_1441,joplin1,2021.2.3,59.78607035076569,
_train_cond.csv,1 1 0 0 0 0 0 0 1 1,4,categoryB,j,,,0,1,1,7,2,6,34,13,,,,,,,,,,,,,,,,,,,j,1,0.14479799999389797,,,,,,,,,,,,,,,,,,,,,,,,,,,,,,,,,,,,106,002,2021_Sep_30_1441,joplin1,2021.2.3,59.78607035076569,
_train_cond.csv,0 0 0 1 0 0 1 0 0 0,2,categoryB,j,,,0,1,1,7,2,7,35,11,,,,,,,,,,,,,,,,,,,j,1,0.20053616701625288,,,,,,,,,,,,,,,,,,,,,,,,,,,,,,,,,,,,106,002,2021_Sep_30_1441,joplin1,2021.2.3,59.78607035076569,
_train_cond.csv,0 1 0 0 0 0 0 0 1 0,2,categoryB,j,,,0,1,1,7,2,8,36,8,,,,,,,,,,,,,,,,,,,j,1,0.7418777090497315,,,,,,,,,,,,,,,,,,,,,,,,,,,,,,,,,,,,106,002,2021_Sep_30_1441,joplin1,2021.2.3,59.78607035076569,
_train_cond.csv,0 0 0 1 1 1 1 0 0 0,4,categoryB,j,,,0,1,1,7,2,9,37,10,,,,,,,,,,,,,,,,,,,j,1,0.32499575009569526,,,,,,,,,,,,,,,,,,,,,,,,,,,,,,,,,,,,106,002,2021_Sep_30_1441,joplin1,2021.2.3,59.78607035076569,
_train_cond.csv,1 1 0 1 0 0 1 0 1 1,6,categoryA,f,,,0,1,1,7,2,10,38,2,,,,,,,,,,,,,,,,,,,j,0,0.23907533299643546,,,,,,,,,,,,,,,,,,,,,,,,,,,,,,,,,,,,106,002,2021_Sep_30_1441,joplin1,2021.2.3,59.78607035076569,
_train_cond.csv,1 0 1 1 1 1 1 1 0 1,8,categoryA,f,,,0,1,1,7,2,11,39,1,,,,,,,,,,,,,,,,,,,f,1,0.15407166595105082,,,,,,,,,,,,,,,,,,,,,,,,,,,,,,,,,,,,106,002,2021_Sep_30_1441,joplin1,2021.2.3,59.78607035076569,
_train_cond.csv,0 0 1 0 1 1 0 1 0 0,4,categoryB,j,,,0,1,1,7,2,12,40,9,,,,,,,,,,,,,,,,,,,f,0,0.24074904096778482,,,,,,,,,,,,,,,,,,,,,,,,,,,,,,,,,,,,106,002,2021_Sep_30_1441,joplin1,2021.2.3,59.78607035076569,
_train_cond.csv,1 1 1 0 0 0 0 1 1 1,6,categoryA,f,,,0,1,1,7,2,13,41,3,,,,,,,,,,,,,,,,,,,f,1,0.25238429103046656,,,,,,,,,,,,,,,,,,,,,,,,,,,,,,,,,,,,106,002,2021_Sep_30_1441,joplin1,2021.2.3,59.78607035076569,
_train_cond.csv,,,,,,,0,1,1,7,,,,,,,,,,,,,,,,,,,,,,,,,,space,8.088059916975908,,,,,,,,,,,,,,,,,,,,,,,,,,,,,,,,,,106,002,2021_Sep_30_1441,joplin1,2021.2.3,59.78607035076569,
_train_cond.csv,0 0 1 0 1 1 0 1 0 0,4,categoryB,j,,,0,2,2,5,0,0,0,9,,,,,,,,,,,,,,,,,,,f,0,0.1446934579871595,,,,,,,,,,,,,,,,,,,,,,,,,,,,,,,,,,,,106,002,2021_Sep_30_1441,joplin1,2021.2.3,59.78607035076569,
_train_cond.csv,1 1 1 0 0 0 0 1 1 1,6,categoryA,f,,,0,2,2,5,0,1,1,3,,,,,,,,,,,,,,,,,,,f,1,0.2251414170023054,,,,,,,,,,,,,,,,,,,,,,,,,,,,,,,,,,,,106,002,2021_Sep_30_1441,joplin1,2021.2.3,59.78607035076569,
_train_cond.csv,0 0 0 1 1 1 1 0 0 0,4,categoryB,j,,,0,2,2,5,0,2,2,10,,,,,,,,,,,,,,,,,,,j,1,0.41403720795642585,,,,,,,,,,,,,,,,,,,,,,,,,,,,,,,,,,,,106,002,2021_Sep_30_1441,joplin1,2021.2.3,59.78607035076569,
_train_cond.csv,1 0 1 1 1 1 1 1 0 1,8,categoryA,f,,,0,2,2,5,0,3,3,1,,,,,,,,,,,,,,,,,,,f,1,0.20263729093130678,,,,,,,,,,,,,,,,,,,,,,,,,,,,,,,,,,,,106,002,2021_Sep_30_1441,joplin1,2021.2.3,59.78607035076569,
_train_cond.csv,1 0 0 0 0 0 0 0 0 1,2,categoryB,j,,,0,2,2,5,0,4,4,7,,,,,,,,,,,,,,,,,,,j,1,0.2160158749902621,,,,,,,,,,,,,,,,,,,,,,,,,,,,,,,,,,,,106,002,2021_Sep_30_1441,joplin1,2021.2.3,59.78607035076569,
_train_cond.csv,1 1 0 0 0 0 0 0 1 1,4,categoryB,j,,,0,2,2,5,0,5,5,13,,,,,,,,,,,,,,,,,,,j,1,0.1258570000063628,,,,,,,,,,,,,,,,,,,,,,,,,,,,,,,,,,,,106,002,2021_Sep_30_1441,joplin1,2021.2.3,59.78607035076569,
_train_cond.csv,1 1 0 1 0 0 1 0 1 1,6,categoryA,f,,,0,2,2,5,0,6,6,2,,,,,,,,,,,,,,,,,,,j,0,0.1816388339502737,,,,,,,,,,,,,,,,,,,,,,,,,,,,,,,,,,,,106,002,2021_Sep_30_1441,joplin1,2021.2.3,59.78607035076569,
_train_cond.csv,1 1 1 0 1 1 0 1 1 1,8,categoryA,f,,,0,2,2,5,0,7,7,4,,,,,,,,,,,,,,,,,,,f,1,0.2839008329901844,,,,,,,,,,,,,,,,,,,,,,,,,,,,,,,,,,,,106,002,2021_Sep_30_1441,joplin1,2021.2.3,59.78607035076569,
_train_cond.csv,0 0 0 1 0 0 1 0 0 0,2,categoryB,j,,,0,2,2,5,0,8,8,11,,,,,,,,,,,,,,,,,,,j,1,0.7665076249977574,,,,,,,,,,,,,,,,,,,,,,,,,,,,,,,,,,,,106,002,2021_Sep_30_1441,joplin1,2021.2.3,59.78607035076569,
_train_cond.csv,0 0 1 1 1 1 1 1 0 0,6,categoryA,f,,,0,2,2,5,0,9,9,6,,,,,,,,,,,,,,,,,,,f,1,0.20520824997220188,,,,,,,,,,,,,,,,,,,,,,,,,,,,,,,,,,,,106,002,2021_Sep_30_1441,joplin1,2021.2.3,59.78607035076569,
_train_cond.csv,0 1 1 1 1 1 1 1 1 0,8,categoryA,f,,,0,2,2,5,0,10,10,0,,,,,,,,,,,,,,,,,,,f,1,0.4509112910600379,,,,,,,,,,,,,,,,,,,,,,,,,,,,,,,,,,,,106,002,2021_Sep_30_1441,joplin1,2021.2.3,59.78607035076569,
_train_cond.csv,0 0 1 0 0 0 0 1 0 0,2,categoryB,j,,,0,2,2,5,0,11,11,12,,,,,,,,,,,,,,,,,,,j,1,0.36671229207422584,,,,,,,,,,,,,,,,,,,,,,,,,,,,,,,,,,,,106,002,2021_Sep_30_1441,joplin1,2021.2.3,59.78607035076569,
_train_cond.csv,1 1 0 1 1 1 1 0 1 1,8,categoryA,f,,,0,2,2,5,0,12,12,5,,,,,,,,,,,,,,,,,,,j,0,0.350831332965754,,,,,,,,,,,,,,,,,,,,,,,,,,,,,,,,,,,,106,002,2021_Sep_30_1441,joplin1,2021.2.3,59.78607035076569,
_train_cond.csv,0 1 0 0 0 0 0 0 1 0,2,categoryB,j,,,0,2,2,5,0,13,13,8,,,,,,,,,,,,,,,,,,,j,1,0.6780362080316991,,,,,,,,,,,,,,,,,,,,,,,,,,,,,,,,,,,,106,002,2021_Sep_30_1441,joplin1,2021.2.3,59.78607035076569,
_train_cond.csv,1 1 1 0 1 1 0 1 1 1,8,categoryA,f,,,0,2,2,5,1,0,14,4,,,,,,,,,,,,,,,,,,,f,1,0.17698354099411517,,,,,,,,,,,,,,,,,,,,,,,,,,,,,,,,,,,,106,002,2021_Sep_30_1441,joplin1,2021.2.3,59.78607035076569,
_train_cond.csv,0 0 1 0 1 1 0 1 0 0,4,categoryB,j,,,0,2,2,5,1,1,15,9,,,,,,,,,,,,,,,,,,,f,0,0.4144520830595866,,,,,,,,,,,,,,,,,,,,,,,,,,,,,,,,,,,,106,002,2021_Sep_30_1441,joplin1,2021.2.3,59.78607035076569,
_train_cond.csv,1 1 0 1 0 0 1 0 1 1,6,categoryA,f,,,0,2,2,5,1,2,16,2,,,,,,,,,,,,,,,,,,,j,0,0.3799270410090685,,,,,,,,,,,,,,,,,,,,,,,,,,,,,,,,,,,,106,002,2021_Sep_30_1441,joplin1,2021.2.3,59.78607035076569,
_train_cond.csv,1 0 0 0 0 0 0 0 0 1,2,categoryB,j,,,0,2,2,5,1,3,17,7,,,,,,,,,,,,,,,,,,,j,1,0.26500804093666375,,,,,,,,,,,,,,,,,,,,,,,,,,,,,,,,,,,,106,002,2021_Sep_30_1441,joplin1,2021.2.3,59.78607035076569,
_train_cond.csv,1 1 0 0 0 0 0 0 1 1,4,categoryB,j,,,0,2,2,5,1,4,18,13,,,,,,,,,,,,,,,,,,,j,1,0.2691370410611853,,,,,,,,,,,,,,,,,,,,,,,,,,,,,,,,,,,,106,002,2021_Sep_30_1441,joplin1,2021.2.3,59.78607035076569,
_train_cond.csv,0 0 0 1 1 1 1 0 0 0,4,categoryB,j,,,0,2,2,5,1,5,19,10,,,,,,,,,,,,,,,,,,,j,1,0.17657912499271333,,,,,,,,,,,,,,,,,,,,,,,,,,,,,,,,,,,,106,002,2021_Sep_30_1441,joplin1,2021.2.3,59.78607035076569,
_train_cond.csv,0 0 0 1 0 0 1 0 0 0,2,categoryB,j,,,0,2,2,5,1,6,20,11,,,,,,,,,,,,,,,,,,,j,1,0.3356628749752417,,,,,,,,,,,,,,,,,,,,,,,,,,,,,,,,,,,,106,002,2021_Sep_30_1441,joplin1,2021.2.3,59.78607035076569,
_train_cond.csv,0 0 1 1 1 1 1 1 0 0,6,categoryA,f,,,0,2,2,5,1,7,21,6,,,,,,,,,,,,,,,,,,,f,1,0.22451570793054998,,,,,,,,,,,,,,,,,,,,,,,,,,,,,,,,,,,,106,002,2021_Sep_30_1441,joplin1,2021.2.3,59.78607035076569,
_train_cond.csv,0 0 1 0 0 0 0 1 0 0,2,categoryB,j,,,0,2,2,5,1,8,22,12,,,,,,,,,,,,,,,,,,,f,0,0.30731449997983873,,,,,,,,,,,,,,,,,,,,,,,,,,,,,,,,,,,,106,002,2021_Sep_30_1441,joplin1,2021.2.3,59.78607035076569,
_train_cond.csv,1 0 1 1 1 1 1 1 0 1,8,categoryA,f,,,0,2,2,5,1,9,23,1,,,,,,,,,,,,,,,,,,,f,1,0.29209116706624627,,,,,,,,,,,,,,,,,,,,,,,,,,,,,,,,,,,,106,002,2021_Sep_30_1441,joplin1,2021.2.3,59.78607035076569,
_train_cond.csv,1 1 1 0 0 0 0 1 1 1,6,categoryA,f,,,0,2,2,5,1,10,24,3,,,,,,,,,,,,,,,,,,,f,1,0.33336304093245417,,,,,,,,,,,,,,,,,,,,,,,,,,,,,,,,,,,,106,002,2021_Sep_30_1441,joplin1,2021.2.3,59.78607035076569,
_train_cond.csv,0 1 1 1 1 1 1 1 1 0,8,categoryA,f,,,0,2,2,5,1,11,25,0,,,,,,,,,,,,,,,,,,,f,1,0.21465091698337346,,,,,,,,,,,,,,,,,,,,,,,,,,,,,,,,,,,,106,002,2021_Sep_30_1441,joplin1,2021.2.3,59.78607035076569,
_train_cond.csv,0 1 0 0 0 0 0 0 1 0,2,categoryB,j,,,0,2,2,5,1,12,26,8,,,,,,,,,,,,,,,,,,,j,1,0.09747487492859364,,,,,,,,,,,,,,,,,,,,,,,,,,,,,,,,,,,,106,002,2021_Sep_30_1441,joplin1,2021.2.3,59.78607035076569,
_train_cond.csv,1 1 0 1 1 1 1 0 1 1,8,categoryA,f,,,0,2,2,5,1,13,27,5,,,,,,,,,,,,,,,,,,,j,0,0.25882483401801437,,,,,,,,,,,,,,,,,,,,,,,,,,,,,,,,,,,,106,002,2021_Sep_30_1441,joplin1,2021.2.3,59.78607035076569,
_train_cond.csv,1 0 1 1 1 1 1 1 0 1,8,categoryA,f,,,0,2,2,5,2,0,28,1,,,,,,,,,,,,,,,,,,,f,1,0.21544312499463558,,,,,,,,,,,,,,,,,,,,,,,,,,,,,,,,,,,,106,002,2021_Sep_30_1441,joplin1,2021.2.3,59.78607035076569,
_train_cond.csv,0 1 1 1 1 1 1 1 1 0,8,categoryA,f,,,0,2,2,5,2,1,29,0,,,,,,,,,,,,,,,,,,,f,1,0.13985416700597852,,,,,,,,,,,,,,,,,,,,,,,,,,,,,,,,,,,,106,002,2021_Sep_30_1441,joplin1,2021.2.3,59.78607035076569,
_train_cond.csv,1 1 0 0 0 0 0 0 1 1,4,categoryB,j,,,0,2,2,5,2,2,30,13,,,,,,,,,,,,,,,,,,,j,1,0.23723854194395244,,,,,,,,,,,,,,,,,,,,,,,,,,,,,,,,,,,,106,002,2021_Sep_30_1441,joplin1,2021.2.3,59.78607035076569,
_train_cond.csv,1 1 0 1 0 0 1 0 1 1,6,categoryA,f,,,0,2,2,5,2,3,31,2,,,,,,,,,,,,,,,,,,,j,0,0.1366329580778256,,,,,,,,,,,,,,,,,,,,,,,,,,,,,,,,,,,,106,002,2021_Sep_30_1441,joplin1,2021.2.3,59.78607035076569,
_train_cond.csv,0 0 1 0 1 1 0 1 0 0,4,categoryB,j,,,0,2,2,5,2,4,32,9,,,,,,,,,,,,,,,,,,,f,0,0.27991458296310157,,,,,,,,,,,,,,,,,,,,,,,,,,,,,,,,,,,,106,002,2021_Sep_30_1441,joplin1,2021.2.3,59.78607035076569,
_train_cond.csv,1 1 0 1 1 1 1 0 1 1,8,categoryA,f,,,0,2,2,5,2,5,33,5,,,,,,,,,,,,,,,,,,,j,0,0.13876670796889812,,,,,,,,,,,,,,,,,,,,,,,,,,,,,,,,,,,,106,002,2021_Sep_30_1441,joplin1,2021.2.3,59.78607035076569,
_train_cond.csv,0 0 0 1 1 1 1 0 0 0,4,categoryB,j,,,0,2,2,5,2,6,34,10,,,,,,,,,,,,,,,,,,,j,1,0.4341285420814529,,,,,,,,,,,,,,,,,,,,,,,,,,,,,,,,,,,,106,002,2021_Sep_30_1441,joplin1,2021.2.3,59.78607035076569,
_train_cond.csv,0 0 1 1 1 1 1 1 0 0,6,categoryA,f,,,0,2,2,5,2,7,35,6,,,,,,,,,,,,,,,,,,,f,1,0.12666287505999207,,,,,,,,,,,,,,,,,,,,,,,,,,,,,,,,,,,,106,002,2021_Sep_30_1441,joplin1,2021.2.3,59.78607035076569,
_train_cond.csv,1 1 1 0 1 1 0 1 1 1,8,categoryA,f,,,0,2,2,5,2,8,36,4,,,,,,,,,,,,,,,,,,,f,1,0.16599716700147837,,,,,,,,,,,,,,,,,,,,,,,,,,,,,,,,,,,,106,002,2021_Sep_30_1441,joplin1,2021.2.3,59.78607035076569,
_train_cond.csv,0 1 0 0 0 0 0 0 1 0,2,categoryB,j,,,0,2,2,5,2,9,37,8,,,,,,,,,,,,,,,,,,,j,1,0.30143891694024205,,,,,,,,,,,,,,,,,,,,,,,,,,,,,,,,,,,,106,002,2021_Sep_30_1441,joplin1,2021.2.3,59.78607035076569,
_train_cond.csv,0 0 0 1 0 0 1 0 0 0,2,categoryB,j,,,0,2,2,5,2,10,38,11,,,,,,,,,,,,,,,,,,,j,1,0.22246895893476903,,,,,,,,,,,,,,,,,,,,,,,,,,,,,,,,,,,,106,002,2021_Sep_30_1441,joplin1,2021.2.3,59.78607035076569,
_train_cond.csv,1 0 0 0 0 0 0 0 0 1,2,categoryB,j,,,0,2,2,5,2,11,39,7,,,,,,,,,,,,,,,,,,,j,1,0.1873161249095574,,,,,,,,,,,,,,,,,,,,,,,,,,,,,,,,,,,,106,002,2021_Sep_30_1441,joplin1,2021.2.3,59.78607035076569,
_train_cond.csv,1 1 1 0 0 0 0 1 1 1,6,categoryA,f,,,0,2,2,5,2,12,40,3,,,,,,,,,,,,,,,,,,,f,1,0.13001312501728535,,,,,,,,,,,,,,,,,,,,,,,,,,,,,,,,,,,,106,002,2021_Sep_30_1441,joplin1,2021.2.3,59.78607035076569,
_train_cond.csv,0 0 1 0 0 0 0 1 0 0,2,categoryB,j,,,0,2,2,5,2,13,41,12,,,,,,,,,,,,,,,,,,,f,0,0.20277199998963624,,,,,,,,,,,,,,,,,,,,,,,,,,,,,,,,,,,,106,002,2021_Sep_30_1441,joplin1,2021.2.3,59.78607035076569,
_train_cond.csv,,,,,,,0,2,2,5,,,,,,,,,,,,,,,,,,,,,,,,,,space,2.1929027079604566,,,,,,,,,,,,,,,,,,,,,,,,,,,,,,,,,,106,002,2021_Sep_30_1441,joplin1,2021.2.3,59.78607035076569,
_train_cond.csv,0 0 0 1 1 1 1 0 0 0,4,categoryB,j,,,0,3,3,4,0,0,0,10,,,,,,,,,,,,,,,,,,,j,1,0.21311366697773337,,,,,,,,,,,,,,,,,,,,,,,,,,,,,,,,,,,,106,002,2021_Sep_30_1441,joplin1,2021.2.3,59.78607035076569,
_train_cond.csv,0 1 1 1 1 1 1 1 1 0,8,categoryA,f,,,0,3,3,4,0,1,1,0,,,,,,,,,,,,,,,,,,,f,1,0.42597524996381253,,,,,,,,,,,,,,,,,,,,,,,,,,,,,,,,,,,,106,002,2021_Sep_30_1441,joplin1,2021.2.3,59.78607035076569,
_train_cond.csv,1 1 0 1 0 0 1 0 1 1,6,categoryA,f,,,0,3,3,4,0,2,2,2,,,,,,,,,,,,,,,,,,,j,0,0.1656062089605257,,,,,,,,,,,,,,,,,,,,,,,,,,,,,,,,,,,,106,002,2021_Sep_30_1441,joplin1,2021.2.3,59.78607035076569,
_train_cond.csv,1 0 0 0 0 0 0 0 0 1,2,categoryB,j,,,0,3,3,4,0,3,3,7,,,,,,,,,,,,,,,,,,,j,1,0.0049877919955179095,,,,,,,,,,,,,,,,,,,,,,,,,,,,,,,,,,,,106,002,2021_Sep_30_1441,joplin1,2021.2.3,59.78607035076569,
_train_cond.csv,0 0 0 1 0 0 1 0 0 0,2,categoryB,j,,,0,3,3,4,0,4,4,11,,,,,,,,,,,,,,,,,,,j,1,0.09736779204104096,,,,,,,,,,,,,,,,,,,,,,,,,,,,,,,,,,,,106,002,2021_Sep_30_1441,joplin1,2021.2.3,59.78607035076569,
_train_cond.csv,0 0 1 1 1 1 1 1 0 0,6,categoryA,f,,,0,3,3,4,0,5,5,6,,,,,,,,,,,,,,,,,,,f,1,0.004269291996024549,,,,,,,,,,,,,,,,,,,,,,,,,,,,,,,,,,,,106,002,2021_Sep_30_1441,joplin1,2021.2.3,59.78607035076569,
_train_cond.csv,1 1 1 0 0 0 0 1 1 1,6,categoryA,f,,,0,3,3,4,0,6,6,3,,,,,,,,,,,,,,,,,,,f,1,0.04127599997445941,,,,,,,,,,,,,,,,,,,,,,,,,,,,,,,,,,,,106,002,2021_Sep_30_1441,joplin1,2021.2.3,59.78607035076569,
_train_cond.csv,1 1 0 0 0 0 0 0 1 1,4,categoryB,j,,,0,3,3,4,0,7,7,13,,,,,,,,,,,,,,,,,,,j,1,0.029514541965909302,,,,,,,,,,,,,,,,,,,,,,,,,,,,,,,,,,,,106,002,2021_Sep_30_1441,joplin1,2021.2.3,59.78607035076569,
_train_cond.csv,1 0 1 1 1 1 1 1 0 1,8,categoryA,f,,,0,3,3,4,0,8,8,1,,,,,,,,,,,,,,,,,,,f,1,0.18666320899501443,,,,,,,,,,,,,,,,,,,,,,,,,,,,,,,,,,,,106,002,2021_Sep_30_1441,joplin1,2021.2.3,59.78607035076569,
_train_cond.csv,0 0 1 0 1 1 0 1 0 0,4,categoryB,j,,,0,3,3,4,0,9,9,9,,,,,,,,,,,,,,,,,,,f,0,0.28741158393677324,,,,,,,,,,,,,,,,,,,,,,,,,,,,,,,,,,,,106,002,2021_Sep_30_1441,joplin1,2021.2.3,59.78607035076569,
_train_cond.csv,1 1 1 0 1 1 0 1 1 1,8,categoryA,f,,,0,3,3,4,0,10,10,4,,,,,,,,,,,,,,,,,,,f,1,0.20844562503043562,,,,,,,,,,,,,,,,,,,,,,,,,,,,,,,,,,,,106,002,2021_Sep_30_1441,joplin1,2021.2.3,59.78607035076569,
_train_cond.csv,0 0 1 0 0 0 0 1 0 0,2,categoryB,j,,,0,3,3,4,0,11,11,12,,,,,,,,,,,,,,,,,,,f,0,0.3964950420195237,,,,,,,,,,,,,,,,,,,,,,,,,,,,,,,,,,,,106,002,2021_Sep_30_1441,joplin1,2021.2.3,59.78607035076569,
_train_cond.csv,1 1 0 1 1 1 1 0 1 1,8,categoryA,f,,,0,3,3,4,0,12,12,5,,,,,,,,,,,,,,,,,,,j,0,0.14612387504894286,,,,,,,,,,,,,,,,,,,,,,,,,,,,,,,,,,,,106,002,2021_Sep_30_1441,joplin1,2021.2.3,59.78607035076569,
_train_cond.csv,0 1 0 0 0 0 0 0 1 0,2,categoryB,j,,,0,3,3,4,0,13,13,8,,,,,,,,,,,,,,,,,,,j,1,0.07422016595955938,,,,,,,,,,,,,,,,,,,,,,,,,,,,,,,,,,,,106,002,2021_Sep_30_1441,joplin1,2021.2.3,59.78607035076569,
_train_cond.csv,1 1 0 1 1 1 1 0 1 1,8,categoryA,f,,,0,3,3,4,1,0,14,5,,,,,,,,,,,,,,,,,,,j,0,0.06094208301510662,,,,,,,,,,,,,,,,,,,,,,,,,,,,,,,,,,,,106,002,2021_Sep_30_1441,joplin1,2021.2.3,59.78607035076569,
_train_cond.csv,0 0 0 1 0 0 1 0 0 0,2,categoryB,j,,,0,3,3,4,1,1,15,11,,,,,,,,,,,,,,,,,,,j,1,0.55995958391577,,,,,,,,,,,,,,,,,,,,,,,,,,,,,,,,,,,,106,002,2021_Sep_30_1441,joplin1,2021.2.3,59.78607035076569,
_train_cond.csv,1 0 0 0 0 0 0 0 0 1,2,categoryB,j,,,0,3,3,4,1,2,16,7,,,,,,,,,,,,,,,,,,,j,1,1.110738749965094,,,,,,,,,,,,,,,,,,,,,,,,,,,,,,,,,,,,106,002,2021_Sep_30_1441,joplin1,2021.2.3,59.78607035076569,
_train_cond.csv,0 1 0 0 0 0 0 0 1 0,2,categoryB,j,,,0,3,3,4,1,3,17,8,,,,,,,,,,,,,,,,,,,j,1,0.20043808408081532,,,,,,,,,,,,,,,,,,,,,,,,,,,,,,,,,,,,106,002,2021_Sep_30_1441,joplin1,2021.2.3,59.78607035076569,
_train_cond.csv,1 1 0 0 0 0 0 0 1 1,4,categoryB,j,,,0,3,3,4,1,4,18,13,,,,,,,,,,,,,,,,,,,j,1,0.5189504999434575,,,,,,,,,,,,,,,,,,,,,,,,,,,,,,,,,,,,106,002,2021_Sep_30_1441,joplin1,2021.2.3,59.78607035076569,
_train_cond.csv,1 1 1 0 1 1 0 1 1 1,8,categoryA,f,,,0,3,3,4,1,5,19,4,,,,,,,,,,,,,,,,,,,f,1,0.12041329103522003,,,,,,,,,,,,,,,,,,,,,,,,,,,,,,,,,,,,106,002,2021_Sep_30_1441,joplin1,2021.2.3,59.78607035076569,
_train_cond.csv,0 0 1 0 0 0 0 1 0 0,2,categoryB,j,,,0,3,3,4,1,6,20,12,,,,,,,,,,,,,,,,,,,j,1,0.29519966698717326,,,,,,,,,,,,,,,,,,,,,,,,,,,,,,,,,,,,106,002,2021_Sep_30_1441,joplin1,2021.2.3,59.78607035076569,
_train_cond.csv,1 0 1 1 1 1 1 1 0 1,8,categoryA,f,,,0,3,3,4,1,7,21,1,,,,,,,,,,,,,,,,,,,f,1,0.20157329202629626,,,,,,,,,,,,,,,,,,,,,,,,,,,,,,,,,,,,106,002,2021_Sep_30_1441,joplin1,2021.2.3,59.78607035076569,
_train_cond.csv,0 0 1 0 1 1 0 1 0 0,4,categoryB,j,,,0,3,3,4,1,8,22,9,,,,,,,,,,,,,,,,,,,f,0,0.21370124991517514,,,,,,,,,,,,,,,,,,,,,,,,,,,,,,,,,,,,106,002,2021_Sep_30_1441,joplin1,2021.2.3,59.78607035076569,
_train_cond.csv,1 1 1 0 0 0 0 1 1 1,6,categoryA,f,,,0,3,3,4,1,9,23,3,,,,,,,,,,,,,,,,,,,f,1,0.4751297499751672,,,,,,,,,,,,,,,,,,,,,,,,,,,,,,,,,,,,106,002,2021_Sep_30_1441,joplin1,2021.2.3,59.78607035076569,
_train_cond.csv,0 0 1 1 1 1 1 1 0 0,6,categoryA,f,,,0,3,3,4,1,10,24,6,,,,,,,,,,,,,,,,,,,f,1,0.24491970892995596,,,,,,,,,,,,,,,,,,,,,,,,,,,,,,,,,,,,106,002,2021_Sep_30_1441,joplin1,2021.2.3,59.78607035076569,
_train_cond.csv,0 0 0 1 1 1 1 0 0 0,4,categoryB,j,,,0,3,3,4,1,11,25,10,,,,,,,,,,,,,,,,,,,j,1,0.36184195801615715,,,,,,,,,,,,,,,,,,,,,,,,,,,,,,,,,,,,106,002,2021_Sep_30_1441,joplin1,2021.2.3,59.78607035076569,
_train_cond.csv,1 1 0 1 0 0 1 0 1 1,6,categoryA,f,,,0,3,3,4,1,12,26,2,,,,,,,,,,,,,,,,,,,j,0,1.713235041941516,,,,,,,,,,,,,,,,,,,,,,,,,,,,,,,,,,,,106,002,2021_Sep_30_1441,joplin1,2021.2.3,59.78607035076569,
_train_cond.csv,0 1 1 1 1 1 1 1 1 0,8,categoryA,f,,,0,3,3,4,1,13,27,0,,,,,,,,,,,,,,,,,,,f,1,1.0353262920398265,,,,,,,,,,,,,,,,,,,,,,,,,,,,,,,,,,,,106,002,2021_Sep_30_1441,joplin1,2021.2.3,59.78607035076569,
_train_cond.csv,0 1 1 1 1 1 1 1 1 0,8,categoryA,f,,,0,3,3,4,2,0,28,0,,,,,,,,,,,,,,,,,,,f,1,0.0635211659828201,,,,,,,,,,,,,,,,,,,,,,,,,,,,,,,,,,,,106,002,2021_Sep_30_1441,joplin1,2021.2.3,59.78607035076569,
_train_cond.csv,1 0 0 0 0 0 0 0 0 1,2,categoryB,j,,,0,3,3,4,2,1,29,7,,,,,,,,,,,,,,,,,,,j,1,0.5226007499732077,,,,,,,,,,,,,,,,,,,,,,,,,,,,,,,,,,,,106,002,2021_Sep_30_1441,joplin1,2021.2.3,59.78607035076569,
_train_cond.csv,1 1 0 0 0 0 0 0 1 1,4,categoryB,j,,,0,3,3,4,2,2,30,13,,,,,,,,,,,,,,,,,,,j,1,0.07387770898640156,,,,,,,,,,,,,,,,,,,,,,,,,,,,,,,,,,,,106,002,2021_Sep_30_1441,joplin1,2021.2.3,59.78607035076569,
_train_cond.csv,1 0 1 1 1 1 1 1 0 1,8,categoryA,f,,,0,3,3,4,2,3,31,1,,,,,,,,,,,,,,,,,,,f,1,0.09343829192221165,,,,,,,,,,,,,,,,,,,,,,,,,,,,,,,,,,,,106,002,2021_Sep_30_1441,joplin1,2021.2.3,59.78607035076569,
_train_cond.csv,1 1 0 1 0 0 1 0 1 1,6,categoryA,f,,,0,3,3,4,2,4,32,2,,,,,,,,,,,,,,,,,,,j,0,0.6965232910588384,,,,,,,,,,,,,,,,,,,,,,,,,,,,,,,,,,,,106,002,2021_Sep_30_1441,joplin1,2021.2.3,59.78607035076569,
_train_cond.csv,0 0 1 1 1 1 1 1 0 0,6,categoryA,f,,,0,3,3,4,2,5,33,6,,,,,,,,,,,,,,,,,,,f,1,0.281467332970351,,,,,,,,,,,,,,,,,,,,,,,,,,,,,,,,,,,,106,002,2021_Sep_30_1441,joplin1,2021.2.3,59.78607035076569,
_train_cond.csv,1 1 1 0 1 1 0 1 1 1,8,categoryA,f,,,0,3,3,4,2,6,34,4,,,,,,,,,,,,,,,,,,,f,1,0.20458720799069852,,,,,,,,,,,,,,,,,,,,,,,,,,,,,,,,,,,,106,002,2021_Sep_30_1441,joplin1,2021.2.3,59.78607035076569,
_train_cond.csv,0 1 0 0 0 0 0 0 1 0,2,categoryB,j,,,0,3,3,4,2,7,35,8,,,,,,,,,,,,,,,,,,,j,1,0.04932166694197804,,,,,,,,,,,,,,,,,,,,,,,,,,,,,,,,,,,,106,002,2021_Sep_30_1441,joplin1,2021.2.3,59.78607035076569,
_train_cond.csv,0 0 0 1 1 1 1 0 0 0,4,categoryB,j,,,0,3,3,4,2,8,36,10,,,,,,,,,,,,,,,,,,,j,1,0.7488764580339193,,,,,,,,,,,,,,,,,,,,,,,,,,,,,,,,,,,,106,002,2021_Sep_30_1441,joplin1,2021.2.3,59.78607035076569,
_train_cond.csv,0 0 1 0 0 0 0 1 0 0,2,categoryB,j,,,0,3,3,4,2,9,37,12,,,,,,,,,,,,,,,,,,,f,0,0.18067354196682572,,,,,,,,,,,,,,,,,,,,,,,,,,,,,,,,,,,,106,002,2021_Sep_30_1441,joplin1,2021.2.3,59.78607035076569,
_train_cond.csv,1 1 1 0 0 0 0 1 1 1,6,categoryA,f,,,0,3,3,4,2,10,38,3,,,,,,,,,,,,,,,,,,,f,1,0.14653029199689627,,,,,,,,,,,,,,,,,,,,,,,,,,,,,,,,,,,,106,002,2021_Sep_30_1441,joplin1,2021.2.3,59.78607035076569,
_train_cond.csv,1 1 0 1 1 1 1 0 1 1,8,categoryA,f,,,0,3,3,4,2,11,39,5,,,,,,,,,,,,,,,,,,,j,0,0.16287962498608977,,,,,,,,,,,,,,,,,,,,,,,,,,,,,,,,,,,,106,002,2021_Sep_30_1441,joplin1,2021.2.3,59.78607035076569,
_train_cond.csv,0 0 0 1 0 0 1 0 0 0,2,categoryB,j,,,0,3,3,4,2,12,40,11,,,,,,,,,,,,,,,,,,,j,1,0.28973537497222424,,,,,,,,,,,,,,,,,,,,,,,,,,,,,,,,,,,,106,002,2021_Sep_30_1441,joplin1,2021.2.3,59.78607035076569,
_train_cond.csv,0 0 1 0 1 1 0 1 0 0,4,categoryB,j,,,0,3,3,4,2,13,41,9,,,,,,,,,,,,,,,,,,,f,0,0.2989133750088513,,,,,,,,,,,,,,,,,,,,,,,,,,,,,,,,,,,,106,002,2021_Sep_30_1441,joplin1,2021.2.3,59.78607035076569,
_train_cond.csv,,,,,,,0,3,3,4,,,,,,,,,,,,,,,,,,,,,,,,,,space,2.37264212500304,,,,,,,,,,,,,,,,,,,,,,,,,,,,,,,,,,106,002,2021_Sep_30_1441,joplin1,2021.2.3,59.78607035076569,
_train_cond.csv,1 1 0 1 0 0 1 0 1 1,6,categoryA,f,,,0,4,4,6,0,0,0,2,,,,,,,,,,,,,,,,,,,j,0,0.29773941601160914,,,,,,,,,,,,,,,,,,,,,,,,,,,,,,,,,,,,106,002,2021_Sep_30_1441,joplin1,2021.2.3,59.78607035076569,
_train_cond.csv,1 1 0 0 0 0 0 0 1 1,4,categoryB,j,,,0,4,4,6,0,1,1,13,,,,,,,,,,,,,,,,,,,j,1,0.01182974991388619,,,,,,,,,,,,,,,,,,,,,,,,,,,,,,,,,,,,106,002,2021_Sep_30_1441,joplin1,2021.2.3,59.78607035076569,
_train_cond.csv,0 1 0 0 0 0 0 0 1 0,2,categoryB,j,,,0,4,4,6,0,2,2,8,,,,,,,,,,,,,,,,,,,j,1,0.6652246250305325,,,,,,,,,,,,,,,,,,,,,,,,,,,,,,,,,,,,106,002,2021_Sep_30_1441,joplin1,2021.2.3,59.78607035076569,
_train_cond.csv,0 0 1 1 1 1 1 1 0 0,6,categoryA,f,,,0,4,4,6,0,3,3,6,,,,,,,,,,,,,,,,,,,f,1,0.03590245801024139,,,,,,,,,,,,,,,,,,,,,,,,,,,,,,,,,,,,106,002,2021_Sep_30_1441,joplin1,2021.2.3,59.78607035076569,
_train_cond.csv,1 1 1 0 1 1 0 1 1 1,8,categoryA,f,,,0,4,4,6,0,4,4,4,,,,,,,,,,,,,,,,,,,f,1,0.2004209590377286,,,,,,,,,,,,,,,,,,,,,,,,,,,,,,,,,,,,106,002,2021_Sep_30_1441,joplin1,2021.2.3,59.78607035076569,
_train_cond.csv,0 0 1 0 1 1 0 1 0 0,4,categoryB,j,,,0,4,4,6,0,5,5,9,,,,,,,,,,,,,,,,,,,f,0,0.14292837504763156,,,,,,,,,,,,,,,,,,,,,,,,,,,,,,,,,,,,106,002,2021_Sep_30_1441,joplin1,2021.2.3,59.78607035076569,
_train_cond.csv,0 1 1 1 1 1 1 1 1 0,8,categoryA,f,,,0,4,4,6,0,6,6,0,,,,,,,,,,,,,,,,,,,f,1,0.3348791250027716,,,,,,,,,,,,,,,,,,,,,,,,,,,,,,,,,,,,106,002,2021_Sep_30_1441,joplin1,2021.2.3,59.78607035076569,
_train_cond.csv,1 0 1 1 1 1 1 1 0 1,8,categoryA,f,,,0,4,4,6,0,7,7,1,,,,,,,,,,,,,,,,,,,f,1,0.2881185830337927,,,,,,,,,,,,,,,,,,,,,,,,,,,,,,,,,,,,106,002,2021_Sep_30_1441,joplin1,2021.2.3,59.78607035076569,
_train_cond.csv,1 1 1 0 0 0 0 1 1 1,6,categoryA,f,,,0,4,4,6,0,8,8,3,,,,,,,,,,,,,,,,,,,f,1,0.2986208749935031,,,,,,,,,,,,,,,,,,,,,,,,,,,,,,,,,,,,106,002,2021_Sep_30_1441,joplin1,2021.2.3,59.78607035076569,
_train_cond.csv,1 1 0 1 1 1 1 0 1 1,8,categoryA,f,,,0,4,4,6,0,9,9,5,,,,,,,,,,,,,,,,,,,j,0,0.10802595899440348,,,,,,,,,,,,,,,,,,,,,,,,,,,,,,,,,,,,106,002,2021_Sep_30_1441,joplin1,2021.2.3,59.78607035076569,
_train_cond.csv,0 0 0 1 0 0 1 0 0 0,2,categoryB,j,,,0,4,4,6,0,10,10,11,,,,,,,,,,,,,,,,,,,j,1,0.10866816702764481,,,,,,,,,,,,,,,,,,,,,,,,,,,,,,,,,,,,106,002,2021_Sep_30_1441,joplin1,2021.2.3,59.78607035076569,
_train_cond.csv,0 0 0 1 1 1 1 0 0 0,4,categoryB,j,,,0,4,4,6,0,11,11,10,,,,,,,,,,,,,,,,,,,j,1,0.10190395801328123,,,,,,,,,,,,,,,,,,,,,,,,,,,,,,,,,,,,106,002,2021_Sep_30_1441,joplin1,2021.2.3,59.78607035076569,
_train_cond.csv,0 0 1 0 0 0 0 1 0 0,2,categoryB,j,,,0,4,4,6,0,12,12,12,,,,,,,,,,,,,,,,,,,f,0,0.2072546660201624,,,,,,,,,,,,,,,,,,,,,,,,,,,,,,,,,,,,106,002,2021_Sep_30_1441,joplin1,2021.2.3,59.78607035076569,
_train_cond.csv,1 0 0 0 0 0 0 0 0 1,2,categoryB,j,,,0,4,4,6,0,13,13,7,,,,,,,,,,,,,,,,,,,f,0,0.15601729101035744,,,,,,,,,,,,,,,,,,,,,,,,,,,,,,,,,,,,106,002,2021_Sep_30_1441,joplin1,2021.2.3,59.78607035076569,
_train_cond.csv,0 0 1 1 1 1 1 1 0 0,6,categoryA,f,,,0,4,4,6,1,0,14,6,,,,,,,,,,,,,,,,,,,j,0,0.9305573749588802,,,,,,,,,,,,,,,,,,,,,,,,,,,,,,,,,,,,106,002,2021_Sep_30_1441,joplin1,2021.2.3,59.78607035076569,
_train_cond.csv,1 1 0 1 0 0 1 0 1 1,6,categoryA,f,,,0,4,4,6,1,1,15,2,,,,,,,,,,,,,,,,,,,j,0,0.2355580839794129,,,,,,,,,,,,,,,,,,,,,,,,,,,,,,,,,,,,106,002,2021_Sep_30_1441,joplin1,2021.2.3,59.78607035076569,
_train_cond.csv,0 0 0 1 0 0 1 0 0 0,2,categoryB,j,,,0,4,4,6,1,2,16,11,,,,,,,,,,,,,,,,,,,j,1,0.07983416703063995,,,,,,,,,,,,,,,,,,,,,,,,,,,,,,,,,,,,106,002,2021_Sep_30_1441,joplin1,2021.2.3,59.78607035076569,
_train_cond.csv,0 0 0 1 1 1 1 0 0 0,4,categoryB,j,,,0,4,4,6,1,3,17,10,,,,,,,,,,,,,,,,,,,j,1,0.17030770902056247,,,,,,,,,,,,,,,,,,,,,,,,,,,,,,,,,,,,106,002,2021_Sep_30_1441,joplin1,2021.2.3,59.78607035076569,
_train_cond.csv,0 1 0 0 0 0 0 0 1 0,2,categoryB,j,,,0,4,4,6,1,4,18,8,,,,,,,,,,,,,,,,,,,j,1,0.28053383401129395,,,,,,,,,,,,,,,,,,,,,,,,,,,,,,,,,,,,106,002,2021_Sep_30_1441,joplin1,2021.2.3,59.78607035076569,
_train_cond.csv,1 0 0 0 0 0 0 0 0 1,2,categoryB,j,,,0,4,4,6,1,5,19,7,,,,,,,,,,,,,,,,,,,j,1,0.23557970800902694,,,,,,,,,,,,,,,,,,,,,,,,,,,,,,,,,,,,106,002,2021_Sep_30_1441,joplin1,2021.2.3,59.78607035076569,
_train_cond.csv,1 1 0 0 0 0 0 0 1 1,4,categoryB,j,,,0,4,4,6,1,6,20,13,,,,,,,,,,,,,,,,,,,j,1,0.0412225000327453,,,,,,,,,,,,,,,,,,,,,,,,,,,,,,,,,,,,106,002,2021_Sep_30_1441,joplin1,2021.2.3,59.78607035076569,
_train_cond.csv,0 0 1 0 1 1 0 1 0 0,4,categoryB,j,,,0,4,4,6,1,7,21,9,,,,,,,,,,,,,,,,,,,f,0,0.013301457976922393,,,,,,,,,,,,,,,,,,,,,,,,,,,,,,,,,,,,106,002,2021_Sep_30_1441,joplin1,2021.2.3,59.78607035076569,
_train_cond.csv,1 1 0 1 1 1 1 0 1 1,8,categoryA,f,,,0,4,4,6,1,8,22,5,,,,,,,,,,,,,,,,,,,j,0,0.050063917064107955,,,,,,,,,,,,,,,,,,,,,,,,,,,,,,,,,,,,106,002,2021_Sep_30_1441,joplin1,2021.2.3,59.78607035076569,
_train_cond.csv,1 1 1 0 1 1 0 1 1 1,8,categoryA,f,,,0,4,4,6,1,9,23,4,,,,,,,,,,,,,,,,,,,f,1,0.1423629579367116,,,,,,,,,,,,,,,,,,,,,,,,,,,,,,,,,,,,106,002,2021_Sep_30_1441,joplin1,2021.2.3,59.78607035076569,
_train_cond.csv,0 1 1 1 1 1 1 1 1 0,8,categoryA,f,,,0,4,4,6,1,10,24,0,,,,,,,,,,,,,,,,,,,f,1,0.014062749920412898,,,,,,,,,,,,,,,,,,,,,,,,,,,,,,,,,,,,106,002,2021_Sep_30_1441,joplin1,2021.2.3,59.78607035076569,
_train_cond.csv,0 0 1 0 0 0 0 1 0 0,2,categoryB,j,,,0,4,4,6,1,11,25,12,,,,,,,,,,,,,,,,,,,f,0,0.10731250001117587,,,,,,,,,,,,,,,,,,,,,,,,,,,,,,,,,,,,106,002,2021_Sep_30_1441,joplin1,2021.2.3,59.78607035076569,
_train_cond.csv,1 0 1 1 1 1 1 1 0 1,8,categoryA,f,,,0,4,4,6,1,12,26,1,,,,,,,,,,,,,,,,,,,f,1,0.13059374992735684,,,,,,,,,,,,,,,,,,,,,,,,,,,,,,,,,,,,106,002,2021_Sep_30_1441,joplin1,2021.2.3,59.78607035076569,
_train_cond.csv,1 1 1 0 0 0 0 1 1 1,6,categoryA,f,,,0,4,4,6,1,13,27,3,,,,,,,,,,,,,,,,,,,f,1,0.03380400000605732,,,,,,,,,,,,,,,,,,,,,,,,,,,,,,,,,,,,106,002,2021_Sep_30_1441,joplin1,2021.2.3,59.78607035076569,
_train_cond.csv,1 0 1 1 1 1 1 1 0 1,8,categoryA,f,,,0,4,4,6,2,0,28,1,,,,,,,,,,,,,,,,,,,f,1,0.2068381670396775,,,,,,,,,,,,,,,,,,,,,,,,,,,,,,,,,,,,106,002,2021_Sep_30_1441,joplin1,2021.2.3,59.78607035076569,
_train_cond.csv,0 0 0 1 1 1 1 0 0 0,4,categoryB,j,,,0,4,4,6,2,1,29,10,,,,,,,,,,,,,,,,,,,j,1,0.2930199580732733,,,,,,,,,,,,,,,,,,,,,,,,,,,,,,,,,,,,106,002,2021_Sep_30_1441,joplin1,2021.2.3,59.78607035076569,
_train_cond.csv,1 1 1 0 0 0 0 1 1 1,6,categoryA,f,,,0,4,4,6,2,2,30,3,,,,,,,,,,,,,,,,,,,f,1,0.015117292059585452,,,,,,,,,,,,,,,,,,,,,,,,,,,,,,,,,,,,106,002,2021_Sep_30_1441,joplin1,2021.2.3,59.78607035076569,
_train_cond.csv,0 0 1 1 1 1 1 1 0 0,6,categoryA,f,,,0,4,4,6,2,3,31,6,,,,,,,,,,,,,,,,,,,f,1,0.22798524994868785,,,,,,,,,,,,,,,,,,,,,,,,,,,,,,,,,,,,106,002,2021_Sep_30_1441,joplin1,2021.2.3,59.78607035076569,
_train_cond.csv,0 0 1 0 1 1 0 1 0 0,4,categoryB,j,,,0,4,4,6,2,4,32,9,,,,,,,,,,,,,,,,,,,f,0,0.32008270802907646,,,,,,,,,,,,,,,,,,,,,,,,,,,,,,,,,,,,106,002,2021_Sep_30_1441,joplin1,2021.2.3,59.78607035076569,
_train_cond.csv,1 0 0 0 0 0 0 0 0 1,2,categoryB,j,,,0,4,4,6,2,5,33,7,,,,,,,,,,,,,,,,,,,j,1,0.12538079102523625,,,,,,,,,,,,,,,,,,,,,,,,,,,,,,,,,,,,106,002,2021_Sep_30_1441,joplin1,2021.2.3,59.78607035076569,
_train_cond.csv,1 1 0 1 0 0 1 0 1 1,6,categoryA,f,,,0,4,4,6,2,6,34,2,,,,,,,,,,,,,,,,,,,f,1,0.014118042076006532,,,,,,,,,,,,,,,,,,,,,,,,,,,,,,,,,,,,106,002,2021_Sep_30_1441,joplin1,2021.2.3,59.78607035076569,
_train_cond.csv,0 1 1 1 1 1 1 1 1 0,8,categoryA,f,,,0,4,4,6,2,7,35,0,,,,,,,,,,,,,,,,,,,f,1,1.051328375004232,,,,,,,,,,,,,,,,,,,,,,,,,,,,,,,,,,,,106,002,2021_Sep_30_1441,joplin1,2021.2.3,59.78607035076569,
_train_cond.csv,0 0 0 1 0 0 1 0 0 0,2,categoryB,j,,,0,4,4,6,2,8,36,11,,,,,,,,,,,,,,,,,,,j,1,0.8139081670669839,,,,,,,,,,,,,,,,,,,,,,,,,,,,,,,,,,,,106,002,2021_Sep_30_1441,joplin1,2021.2.3,59.78607035076569,
_train_cond.csv,1 1 1 0 1 1 0 1 1 1,8,categoryA,f,,,0,4,4,6,2,9,37,4,,,,,,,,,,,,,,,,,,,j,0,0.22786662494763732,,,,,,,,,,,,,,,,,,,,,,,,,,,,,,,,,,,,106,002,2021_Sep_30_1441,joplin1,2021.2.3,59.78607035076569,
_train_cond.csv,1 1 0 1 1 1 1 0 1 1,8,categoryA,f,,,0,4,4,6,2,10,38,5,,,,,,,,,,,,,,,,,,,j,0,0.3924885420128703,,,,,,,,,,,,,,,,,,,,,,,,,,,,,,,,,,,,106,002,2021_Sep_30_1441,joplin1,2021.2.3,59.78607035076569,
_train_cond.csv,0 0 1 0 0 0 0 1 0 0,2,categoryB,j,,,0,4,4,6,2,11,39,12,,,,,,,,,,,,,,,,,,,f,0,0.19804437493439764,,,,,,,,,,,,,,,,,,,,,,,,,,,,,,,,,,,,106,002,2021_Sep_30_1441,joplin1,2021.2.3,59.78607035076569,
_train_cond.csv,1 1 0 0 0 0 0 0 1 1,4,categoryB,j,,,0,4,4,6,2,12,40,13,,,,,,,,,,,,,,,,,,,j,1,0.30062091699801385,,,,,,,,,,,,,,,,,,,,,,,,,,,,,,,,,,,,106,002,2021_Sep_30_1441,joplin1,2021.2.3,59.78607035076569,
_train_cond.csv,0 1 0 0 0 0 0 0 1 0,2,categoryB,j,,,0,4,4,6,2,13,41,8,,,,,,,,,,,,,,,,,,,j,1,0.20579529192764312,,,,,,,,,,,,,,,,,,,,,,,,,,,,,,,,,,,,106,002,2021_Sep_30_1441,joplin1,2021.2.3,59.78607035076569,
_train_cond.csv,,,,,,,0,4,4,6,,,,,,,,,,,,,,,,,,,,,,,,,,space,29.588645541924052,,,,,,,,,,,,,,,,,,,,,,,,,,,,,,,,,,106,002,2021_Sep_30_1441,joplin1,2021.2.3,59.78607035076569,
_train_cond.csv,0 1 1 1 1 1 1 1 1 0,8,categoryA,f,,,0,5,5,2,0,0,0,0,,,,,,,,,,,,,,,,,,,f,1,0.48442366695962846,,,,,,,,,,,,,,,,,,,,,,,,,,,,,,,,,,,,106,002,2021_Sep_30_1441,joplin1,2021.2.3,59.78607035076569,
_train_cond.csv,1 1 1 0 0 0 0 1 1 1,6,categoryA,f,,,0,5,5,2,0,1,1,3,,,,,,,,,,,,,,,,,,,f,1,0.20459941599983722,,,,,,,,,,,,,,,,,,,,,,,,,,,,,,,,,,,,106,002,2021_Sep_30_1441,joplin1,2021.2.3,59.78607035076569,
_train_cond.csv,1 0 0 0 0 0 0 0 0 1,2,categoryB,j,,,0,5,5,2,0,2,2,7,,,,,,,,,,,,,,,,,,,j,1,0.0332501670345664,,,,,,,,,,,,,,,,,,,,,,,,,,,,,,,,,,,,106,002,2021_Sep_30_1441,joplin1,2021.2.3,59.78607035076569,
_train_cond.csv,0 0 0 1 0 0 1 0 0 0,2,categoryB,j,,,0,5,5,2,0,3,3,11,,,,,,,,,,,,,,,,,,,j,1,0.24581225006841123,,,,,,,,,,,,,,,,,,,,,,,,,,,,,,,,,,,,106,002,2021_Sep_30_1441,joplin1,2021.2.3,59.78607035076569,
_train_cond.csv,0 0 0 1 1 1 1 0 0 0,4,categoryB,j,,,0,5,5,2,0,4,4,10,,,,,,,,,,,,,,,,,,,j,1,0.016289541963487864,,,,,,,,,,,,,,,,,,,,,,,,,,,,,,,,,,,,106,002,2021_Sep_30_1441,joplin1,2021.2.3,59.78607035076569,
_train_cond.csv,0 0 1 0 0 0 0 1 0 0,2,categoryB,j,,,0,5,5,2,0,5,5,12,,,,,,,,,,,,,,,,,,,f,0,0.22242212493438274,,,,,,,,,,,,,,,,,,,,,,,,,,,,,,,,,,,,106,002,2021_Sep_30_1441,joplin1,2021.2.3,59.78607035076569,
_train_cond.csv,1 1 0 1 0 0 1 0 1 1,6,categoryA,f,,,0,5,5,2,0,6,6,2,,,,,,,,,,,,,,,,,,,j,0,0.20086275006178766,,,,,,,,,,,,,,,,,,,,,,,,,,,,,,,,,,,,106,002,2021_Sep_30_1441,joplin1,2021.2.3,59.78607035076569,
_train_cond.csv,1 0 1 1 1 1 1 1 0 1,8,categoryA,f,,,0,5,5,2,0,7,7,1,,,,,,,,,,,,,,,,,,,f,1,0.24794325011316687,,,,,,,,,,,,,,,,,,,,,,,,,,,,,,,,,,,,106,002,2021_Sep_30_1441,joplin1,2021.2.3,59.78607035076569,
_train_cond.csv,1 1 1 0 1 1 0 1 1 1,8,categoryA,f,,,0,5,5,2,0,8,8,4,,,,,,,,,,,,,,,,,,,f,1,0.33194924995768815,,,,,,,,,,,,,,,,,,,,,,,,,,,,,,,,,,,,106,002,2021_Sep_30_1441,joplin1,2021.2.3,59.78607035076569,
_train_cond.csv,1 1 0 0 0 0 0 0 1 1,4,categoryB,j,,,0,5,5,2,0,9,9,13,,,,,,,,,,,,,,,,,,,j,1,0.060635708970949054,,,,,,,,,,,,,,,,,,,,,,,,,,,,,,,,,,,,106,002,2021_Sep_30_1441,joplin1,2021.2.3,59.78607035076569,
_train_cond.csv,0 0 1 1 1 1 1 1 0 0,6,categoryA,f,,,0,5,5,2,0,10,10,6,,,,,,,,,,,,,,,,,,,f,1,0.006511791958473623,,,,,,,,,,,,,,,,,,,,,,,,,,,,,,,,,,,,106,002,2021_Sep_30_1441,joplin1,2021.2.3,59.78607035076569,
_train_cond.csv,1 1 0 1 1 1 1 0 1 1,8,categoryA,f,,,0,5,5,2,0,11,11,5,,,,,,,,,,,,,,,,,,,j,0,0.14060204208362848,,,,,,,,,,,,,,,,,,,,,,,,,,,,,,,,,,,,106,002,2021_Sep_30_1441,joplin1,2021.2.3,59.78607035076569,
_train_cond.csv,0 0 1 0 1 1 0 1 0 0,4,categoryB,j,,,0,5,5,2,0,12,12,9,,,,,,,,,,,,,,,,,,,f,0,0.16377462504897267,,,,,,,,,,,,,,,,,,,,,,,,,,,,,,,,,,,,106,002,2021_Sep_30_1441,joplin1,2021.2.3,59.78607035076569,
_train_cond.csv,0 1 0 0 0 0 0 0 1 0,2,categoryB,j,,,0,5,5,2,0,13,13,8,,,,,,,,,,,,,,,,,,,j,1,0.12070641608443111,,,,,,,,,,,,,,,,,,,,,,,,,,,,,,,,,,,,106,002,2021_Sep_30_1441,joplin1,2021.2.3,59.78607035076569,
_train_cond.csv,1 1 1 0 1 1 0 1 1 1,8,categoryA,f,,,0,5,5,2,1,0,14,4,,,,,,,,,,,,,,,,,,,f,1,0.2414863749872893,,,,,,,,,,,,,,,,,,,,,,,,,,,,,,,,,,,,106,002,2021_Sep_30_1441,joplin1,2021.2.3,59.78607035076569,
_train_cond.csv,1 1 0 1 1 1 1 0 1 1,8,categoryA,f,,,0,5,5,2,1,1,15,5,,,,,,,,,,,,,,,,,,,j,0,0.07721549994312227,,,,,,,,,,,,,,,,,,,,,,,,,,,,,,,,,,,,106,002,2021_Sep_30_1441,joplin1,2021.2.3,59.78607035076569,
_train_cond.csv,1 1 0 1 0 0 1 0 1 1,6,categoryA,f,,,0,5,5,2,1,2,16,2,,,,,,,,,,,,,,,,,,,j,0,0.0879008750198409,,,,,,,,,,,,,,,,,,,,,,,,,,,,,,,,,,,,106,002,2021_Sep_30_1441,joplin1,2021.2.3,59.78607035076569,
_train_cond.csv,0 0 1 0 1 1 0 1 0 0,4,categoryB,j,,,0,5,5,2,1,3,17,9,,,,,,,,,,,,,,,,,,,f,0,0.1122471250128001,,,,,,,,,,,,,,,,,,,,,,,,,,,,,,,,,,,,106,002,2021_Sep_30_1441,joplin1,2021.2.3,59.78607035076569,
_train_cond.csv,1 1 1 0 0 0 0 1 1 1,6,categoryA,f,,,0,5,5,2,1,4,18,3,,,,,,,,,,,,,,,,,,,f,1,0.210270999930799,,,,,,,,,,,,,,,,,,,,,,,,,,,,,,,,,,,,106,002,2021_Sep_30_1441,joplin1,2021.2.3,59.78607035076569,
_train_cond.csv,0 0 1 0 0 0 0 1 0 0,2,categoryB,j,,,0,5,5,2,1,5,19,12,,,,,,,,,,,,,,,,,,,f,0,0.30383258394431323,,,,,,,,,,,,,,,,,,,,,,,,,,,,,,,,,,,,106,002,2021_Sep_30_1441,joplin1,2021.2.3,59.78607035076569,
_train_cond.csv,0 0 1 1 1 1 1 1 0 0,6,categoryA,f,,,0,5,5,2,1,6,20,6,,,,,,,,,,,,,,,,,,,f,1,0.16004566696938127,,,,,,,,,,,,,,,,,,,,,,,,,,,,,,,,,,,,106,002,2021_Sep_30_1441,joplin1,2021.2.3,59.78607035076569,
_train_cond.csv,0 0 0 1 0 0 1 0 0 0,2,categoryB,j,,,0,5,5,2,1,7,21,11,,,,,,,,,,,,,,,,,,,j,1,0.1357550830580294,,,,,,,,,,,,,,,,,,,,,,,,,,,,,,,,,,,,106,002,2021_Sep_30_1441,joplin1,2021.2.3,59.78607035076569,
_train_cond.csv,1 0 0 0 0 0 0 0 0 1,2,categoryB,j,,,0,5,5,2,1,8,22,7,,,,,,,,,,,,,,,,,,,j,1,0.5034049999667332,,,,,,,,,,,,,,,,,,,,,,,,,,,,,,,,,,,,106,002,2021_Sep_30_1441,joplin1,2021.2.3,59.78607035076569,
_train_cond.csv,0 0 0 1 1 1 1 0 0 0,4,categoryB,j,,,0,5,5,2,1,9,23,10,,,,,,,,,,,,,,,,,,,j,1,0.04127287503797561,,,,,,,,,,,,,,,,,,,,,,,,,,,,,,,,,,,,106,002,2021_Sep_30_1441,joplin1,2021.2.3,59.78607035076569,
_train_cond.csv,1 0 1 1 1 1 1 1 0 1,8,categoryA,f,,,0,5,5,2,1,10,24,1,,,,,,,,,,,,,,,,,,,f,1,0.04558399994857609,,,,,,,,,,,,,,,,,,,,,,,,,,,,,,,,,,,,106,002,2021_Sep_30_1441,joplin1,2021.2.3,59.78607035076569,
_train_cond.csv,1 1 0 0 0 0 0 0 1 1,4,categoryB,j,,,0,5,5,2,1,11,25,13,,,,,,,,,,,,,,,,,,,j,1,0.17665770801249892,,,,,,,,,,,,,,,,,,,,,,,,,,,,,,,,,,,,106,002,2021_Sep_30_1441,joplin1,2021.2.3,59.78607035076569,
_train_cond.csv,0 1 1 1 1 1 1 1 1 0,8,categoryA,f,,,0,5,5,2,1,12,26,0,,,,,,,,,,,,,,,,,,,f,1,0.10263512493111193,,,,,,,,,,,,,,,,,,,,,,,,,,,,,,,,,,,,106,002,2021_Sep_30_1441,joplin1,2021.2.3,59.78607035076569,
_train_cond.csv,0 1 0 0 0 0 0 0 1 0,2,categoryB,j,,,0,5,5,2,1,13,27,8,,,,,,,,,,,,,,,,,,,j,1,0.2959217500174418,,,,,,,,,,,,,,,,,,,,,,,,,,,,,,,,,,,,106,002,2021_Sep_30_1441,joplin1,2021.2.3,59.78607035076569,
_train_cond.csv,1 1 0 0 0 0 0 0 1 1,4,categoryB,j,,,0,5,5,2,2,0,28,13,,,,,,,,,,,,,,,,,,,j,1,0.15375183301512152,,,,,,,,,,,,,,,,,,,,,,,,,,,,,,,,,,,,106,002,2021_Sep_30_1441,joplin1,2021.2.3,59.78607035076569,
_train_cond.csv,0 1 0 0 0 0 0 0 1 0,2,categoryB,j,,,0,5,5,2,2,1,29,8,,,,,,,,,,,,,,,,,,,j,1,0.21002258302178234,,,,,,,,,,,,,,,,,,,,,,,,,,,,,,,,,,,,106,002,2021_Sep_30_1441,joplin1,2021.2.3,59.78607035076569,
_train_cond.csv,1 1 0 1 0 0 1 0 1 1,6,categoryA,f,,,0,5,5,2,2,2,30,2,,,,,,,,,,,,,,,,,,,j,0,0.1360145000508055,,,,,,,,,,,,,,,,,,,,,,,,,,,,,,,,,,,,106,002,2021_Sep_30_1441,joplin1,2021.2.3,59.78607035076569,
_train_cond.csv,1 0 1 1 1 1 1 1 0 1,8,categoryA,f,,,0,5,5,2,2,3,31,1,,,,,,,,,,,,,,,,,,,f,1,0.1362734999274835,,,,,,,,,,,,,,,,,,,,,,,,,,,,,,,,,,,,106,002,2021_Sep_30_1441,joplin1,2021.2.3,59.78607035076569,
_train_cond.csv,1 1 0 1 1 1 1 0 1 1,8,categoryA,f,,,0,5,5,2,2,4,32,5,,,,,,,,,,,,,,,,,,,j,0,0.008162583922967315,,,,,,,,,,,,,,,,,,,,,,,,,,,,,,,,,,,,106,002,2021_Sep_30_1441,joplin1,2021.2.3,59.78607035076569,
_train_cond.csv,1 0 0 0 0 0 0 0 0 1,2,categoryB,j,,,0,5,5,2,2,5,33,7,,,,,,,,,,,,,,,,,,,j,1,0.037802500068210065,,,,,,,,,,,,,,,,,,,,,,,,,,,,,,,,,,,,106,002,2021_Sep_30_1441,joplin1,2021.2.3,59.78607035076569,
_train_cond.csv,0 0 1 1 1 1 1 1 0 0,6,categoryA,f,,,0,5,5,2,2,6,34,6,,,,,,,,,,,,,,,,,,,f,1,0.2959805419668555,,,,,,,,,,,,,,,,,,,,,,,,,,,,,,,,,,,,106,002,2021_Sep_30_1441,joplin1,2021.2.3,59.78607035076569,
_train_cond.csv,1 1 1 0 1 1 0 1 1 1,8,categoryA,f,,,0,5,5,2,2,7,35,4,,,,,,,,,,,,,,,,,,,f,1,0.13014483300503343,,,,,,,,,,,,,,,,,,,,,,,,,,,,,,,,,,,,106,002,2021_Sep_30_1441,joplin1,2021.2.3,59.78607035076569,
_train_cond.csv,0 1 1 1 1 1 1 1 1 0,8,categoryA,f,,,0,5,5,2,2,8,36,0,,,,,,,,,,,,,,,,,,,f,1,0.21175733301788568,,,,,,,,,,,,,,,,,,,,,,,,,,,,,,,,,,,,106,002,2021_Sep_30_1441,joplin1,2021.2.3,59.78607035076569,
_train_cond.csv,0 0 0 1 0 0 1 0 0 0,2,categoryB,j,,,0,5,5,2,2,9,37,11,,,,,,,,,,,,,,,,,,,j,1,0.21594683302100748,,,,,,,,,,,,,,,,,,,,,,,,,,,,,,,,,,,,106,002,2021_Sep_30_1441,joplin1,2021.2.3,59.78607035076569,
_train_cond.csv,1 1 1 0 0 0 0 1 1 1,6,categoryA,f,,,0,5,5,2,2,10,38,3,,,,,,,,,,,,,,,,,,,f,1,0.10084812494460493,,,,,,,,,,,,,,,,,,,,,,,,,,,,,,,,,,,,106,002,2021_Sep_30_1441,joplin1,2021.2.3,59.78607035076569,
_train_cond.csv,0 0 1 0 0 0 0 1 0 0,2,categoryB,j,,,0,5,5,2,2,11,39,12,,,,,,,,,,,,,,,,,,,f,0,0.1664242499973625,,,,,,,,,,,,,,,,,,,,,,,,,,,,,,,,,,,,106,002,2021_Sep_30_1441,joplin1,2021.2.3,59.78607035076569,
_train_cond.csv,0 0 0 1 1 1 1 0 0 0,4,categoryB,j,,,0,5,5,2,2,12,40,10,,,,,,,,,,,,,,,,,,,j,1,0.08667729201260954,,,,,,,,,,,,,,,,,,,,,,,,,,,,,,,,,,,,106,002,2021_Sep_30_1441,joplin1,2021.2.3,59.78607035076569,
_train_cond.csv,0 0 1 0 1 1 0 1 0 0,4,categoryB,j,,,0,5,5,2,2,13,41,9,,,,,,,,,,,,,,,,,,,f,0,0.24771466699894518,,,,,,,,,,,,,,,,,,,,,,,,,,,,,,,,,,,,106,002,2021_Sep_30_1441,joplin1,2021.2.3,59.78607035076569,
_train_cond.csv,,,,,,,0,5,5,2,,,,,,,,,,,,,,,,,,,,,,,,,,space,3.1558724170317873,,,,,,,,,,,,,,,,,,,,,,,,,,,,,,,,,,106,002,2021_Sep_30_1441,joplin1,2021.2.3,59.78607035076569,
_train_cond.csv,1 0 1 1 1 1 1 1 0 1,8,categoryA,f,,,0,6,6,3,0,0,0,1,,,,,,,,,,,,,,,,,,,f,1,0.23428304097615182,,,,,,,,,,,,,,,,,,,,,,,,,,,,,,,,,,,,106,002,2021_Sep_30_1441,joplin1,2021.2.3,59.78607035076569,
_train_cond.csv,1 0 0 0 0 0 0 0 0 1,2,categoryB,j,,,0,6,6,3,0,1,1,7,,,,,,,,,,,,,,,,,,,j,1,0.07074350002221763,,,,,,,,,,,,,,,,,,,,,,,,,,,,,,,,,,,,106,002,2021_Sep_30_1441,joplin1,2021.2.3,59.78607035076569,
_train_cond.csv,0 0 0 1 1 1 1 0 0 0,4,categoryB,j,,,0,6,6,3,0,2,2,10,,,,,,,,,,,,,,,,,,,j,1,0.08183112496044487,,,,,,,,,,,,,,,,,,,,,,,,,,,,,,,,,,,,106,002,2021_Sep_30_1441,joplin1,2021.2.3,59.78607035076569,
_train_cond.csv,0 0 0 1 0 0 1 0 0 0,2,categoryB,j,,,0,6,6,3,0,3,3,11,,,,,,,,,,,,,,,,,,,j,1,0.04505679209250957,,,,,,,,,,,,,,,,,,,,,,,,,,,,,,,,,,,,106,002,2021_Sep_30_1441,joplin1,2021.2.3,59.78607035076569,
_train_cond.csv,1 1 1 0 0 0 0 1 1 1,6,categoryA,f,,,0,6,6,3,0,4,4,3,,,,,,,,,,,,,,,,,,,f,1,0.29681170801632106,,,,,,,,,,,,,,,,,,,,,,,,,,,,,,,,,,,,106,002,2021_Sep_30_1441,joplin1,2021.2.3,59.78607035076569,
_train_cond.csv,0 0 1 0 0 0 0 1 0 0,2,categoryB,j,,,0,6,6,3,0,5,5,12,,,,,,,,,,,,,,,,,,,f,0,0.13074512500315905,,,,,,,,,,,,,,,,,,,,,,,,,,,,,,,,,,,,106,002,2021_Sep_30_1441,joplin1,2021.2.3,59.78607035076569,
_train_cond.csv,1 1 0 1 0 0 1 0 1 1,6,categoryA,f,,,0,6,6,3,0,6,6,2,,,,,,,,,,,,,,,,,,,j,0,0.2267223329981789,,,,,,,,,,,,,,,,,,,,,,,,,,,,,,,,,,,,106,002,2021_Sep_30_1441,joplin1,2021.2.3,59.78607035076569,
_train_cond.csv,1 1 1 0 1 1 0 1 1 1,8,categoryA,f,,,0,6,6,3,0,7,7,4,,,,,,,,,,,,,,,,,,,f,1,0.22054445801768452,,,,,,,,,,,,,,,,,,,,,,,,,,,,,,,,,,,,106,002,2021_Sep_30_1441,joplin1,2021.2.3,59.78607035076569,
_train_cond.csv,0 0 1 0 1 1 0 1 0 0,4,categoryB,j,,,0,6,6,3,0,8,8,9,,,,,,,,,,,,,,,,,,,f,0,0.19487491704057902,,,,,,,,,,,,,,,,,,,,,,,,,,,,,,,,,,,,106,002,2021_Sep_30_1441,joplin1,2021.2.3,59.78607035076569,
_train_cond.csv,1 1 0 0 0 0 0 0 1 1,4,categoryB,j,,,0,6,6,3,0,9,9,13,,,,,,,,,,,,,,,,,,,j,1,0.22269945906009525,,,,,,,,,,,,,,,,,,,,,,,,,,,,,,,,,,,,106,002,2021_Sep_30_1441,joplin1,2021.2.3,59.78607035076569,
_train_cond.csv,1 1 0 1 1 1 1 0 1 1,8,categoryA,f,,,0,6,6,3,0,10,10,5,,,,,,,,,,,,,,,,,,,j,0,0.2582922090077773,,,,,,,,,,,,,,,,,,,,,,,,,,,,,,,,,,,,106,002,2021_Sep_30_1441,joplin1,2021.2.3,59.78607035076569,
_train_cond.csv,0 0 1 1 1 1 1 1 0 0,6,categoryA,f,,,0,6,6,3,0,11,11,6,,,,,,,,,,,,,,,,,,,f,1,0.07016454206313938,,,,,,,,,,,,,,,,,,,,,,,,,,,,,,,,,,,,106,002,2021_Sep_30_1441,joplin1,2021.2.3,59.78607035076569,
_train_cond.csv,0 1 1 1 1 1 1 1 1 0,8,categoryA,f,,,0,6,6,3,0,12,12,0,,,,,,,,,,,,,,,,,,,f,1,0.1283588339574635,,,,,,,,,,,,,,,,,,,,,,,,,,,,,,,,,,,,106,002,2021_Sep_30_1441,joplin1,2021.2.3,59.78607035076569,
_train_cond.csv,0 1 0 0 0 0 0 0 1 0,2,categoryB,j,,,0,6,6,3,0,13,13,8,,,,,,,,,,,,,,,,,,,j,1,0.16061241598799825,,,,,,,,,,,,,,,,,,,,,,,,,,,,,,,,,,,,106,002,2021_Sep_30_1441,joplin1,2021.2.3,59.78607035076569,
_train_cond.csv,1 0 0 0 0 0 0 0 0 1,2,categoryB,j,,,0,6,6,3,1,0,14,7,,,,,,,,,,,,,,,,,,,f,0,0.29584033403079957,,,,,,,,,,,,,,,,,,,,,,,,,,,,,,,,,,,,106,002,2021_Sep_30_1441,joplin1,2021.2.3,59.78607035076569,
_train_cond.csv,1 1 0 1 1 1 1 0 1 1,8,categoryA,f,,,0,6,6,3,1,1,15,5,,,,,,,,,,,,,,,,,,,j,0,-2.004194539040327e-05,,,,,,,,,,,,,,,,,,,,,,,,,,,,,,,,,,,,106,002,2021_Sep_30_1441,joplin1,2021.2.3,59.78607035076569,
_train_cond.csv,0 1 0 0 0 0 0 0 1 0,2,categoryB,j,,,0,6,6,3,1,2,16,8,,,,,,,,,,,,,,,,,,,j,1,0.36362383398227394,,,,,,,,,,,,,,,,,,,,,,,,,,,,,,,,,,,,106,002,2021_Sep_30_1441,joplin1,2021.2.3,59.78607035076569,
_train_cond.csv,0 0 1 0 0 0 0 1 0 0,2,categoryB,j,,,0,6,6,3,1,3,17,12,,,,,,,,,,,,,,,,,,,f,0,0.2257404999108985,,,,,,,,,,,,,,,,,,,,,,,,,,,,,,,,,,,,106,002,2021_Sep_30_1441,joplin1,2021.2.3,59.78607035076569,
_train_cond.csv,1 1 0 0 0 0 0 0 1 1,4,categoryB,j,,,0,6,6,3,1,4,18,13,,,,,,,,,,,,,,,,,,,j,1,0.32650820806156844,,,,,,,,,,,,,,,,,,,,,,,,,,,,,,,,,,,,106,002,2021_Sep_30_1441,joplin1,2021.2.3,59.78607035076569,
_train_cond.csv,1 1 0 1 0 0 1 0 1 1,6,categoryA,f,,,0,6,6,3,1,5,19,2,,,,,,,,,,,,,,,,,,,j,0,0.08638325007632375,,,,,,,,,,,,,,,,,,,,,,,,,,,,,,,,,,,,106,002,2021_Sep_30_1441,joplin1,2021.2.3,59.78607035076569,
_train_cond.csv,0 1 1 1 1 1 1 1 1 0,8,categoryA,f,,,0,6,6,3,1,6,20,0,,,,,,,,,,,,,,,,,,,f,1,0.07954162498936057,,,,,,,,,,,,,,,,,,,,,,,,,,,,,,,,,,,,106,002,2021_Sep_30_1441,joplin1,2021.2.3,59.78607035076569,
_train_cond.csv,0 0 1 0 1 1 0 1 0 0,4,categoryB,j,,,0,6,6,3,1,7,21,9,,,,,,,,,,,,,,,,,,,f,0,0.37587124994024634,,,,,,,,,,,,,,,,,,,,,,,,,,,,,,,,,,,,106,002,2021_Sep_30_1441,joplin1,2021.2.3,59.78607035076569,
_train_cond.csv,0 0 1 1 1 1 1 1 0 0,6,categoryA,f,,,0,6,6,3,1,8,22,6,,,,,,,,,,,,,,,,,,,j,0,0.32662941596936435,,,,,,,,,,,,,,,,,,,,,,,,,,,,,,,,,,,,106,002,2021_Sep_30_1441,joplin1,2021.2.3,59.78607035076569,
_train_cond.csv,1 0 1 1 1 1 1 1 0 1,8,categoryA,f,,,0,6,6,3,1,9,23,1,,,,,,,,,,,,,,,,,,,f,1,0.6150311249075457,,,,,,,,,,,,,,,,,,,,,,,,,,,,,,,,,,,,106,002,2021_Sep_30_1441,joplin1,2021.2.3,59.78607035076569,
_train_cond.csv,1 1 1 0 1 1 0 1 1 1,8,categoryA,f,,,0,6,6,3,1,10,24,4,,,,,,,,,,,,,,,,,,,f,1,0.163966208929196,,,,,,,,,,,,,,,,,,,,,,,,,,,,,,,,,,,,106,002,2021_Sep_30_1441,joplin1,2021.2.3,59.78607035076569,
_train_cond.csv,0 0 0 1 0 0 1 0 0 0,2,categoryB,j,,,0,6,6,3,1,11,25,11,,,,,,,,,,,,,,,,,,,j,1,0.24386512499768287,,,,,,,,,,,,,,,,,,,,,,,,,,,,,,,,,,,,106,002,2021_Sep_30_1441,joplin1,2021.2.3,59.78607035076569,
_train_cond.csv,1 1 1 0 0 0 0 1 1 1,6,categoryA,f,,,0,6,6,3,1,12,26,3,,,,,,,,,,,,,,,,,,,f,1,0.43957899999804795,,,,,,,,,,,,,,,,,,,,,,,,,,,,,,,,,,,,106,002,2021_Sep_30_1441,joplin1,2021.2.3,59.78607035076569,
_train_cond.csv,0 0 0 1 1 1 1 0 0 0,4,categoryB,j,,,0,6,6,3,1,13,27,10,,,,,,,,,,,,,,,,,,,j,1,0.5007731250952929,,,,,,,,,,,,,,,,,,,,,,,,,,,,,,,,,,,,106,002,2021_Sep_30_1441,joplin1,2021.2.3,59.78607035076569,
_train_cond.csv,0 0 1 0 0 0 0 1 0 0,2,categoryB,j,,,0,6,6,3,2,0,28,12,,,,,,,,,,,,,,,,,,,f,0,0.021184458979405463,,,,,,,,,,,,,,,,,,,,,,,,,,,,,,,,,,,,106,002,2021_Sep_30_1441,joplin1,2021.2.3,59.78607035076569,
_train_cond.csv,0 0 0 1 1 1 1 0 0 0,4,categoryB,j,,,0,6,6,3,2,1,29,10,,,,,,,,,,,,,,,,,,,j,1,0.010691375005990267,,,,,,,,,,,,,,,,,,,,,,,,,,,,,,,,,,,,106,002,2021_Sep_30_1441,joplin1,2021.2.3,59.78607035076569,
_train_cond.csv,1 1 0 1 1 1 1 0 1 1,8,categoryA,f,,,0,6,6,3,2,2,30,5,,,,,,,,,,,,,,,,,,,j,0,0.07846724998671561,,,,,,,,,,,,,,,,,,,,,,,,,,,,,,,,,,,,106,002,2021_Sep_30_1441,joplin1,2021.2.3,59.78607035076569,
_train_cond.csv,0 1 0 0 0 0 0 0 1 0,2,categoryB,j,,,0,6,6,3,2,3,31,8,,,,,,,,,,,,,,,,,,,j,1,0.08924016705714166,,,,,,,,,,,,,,,,,,,,,,,,,,,,,,,,,,,,106,002,2021_Sep_30_1441,joplin1,2021.2.3,59.78607035076569,
_train_cond.csv,1 1 0 0 0 0 0 0 1 1,4,categoryB,j,,,0,6,6,3,2,4,32,13,,,,,,,,,,,,,,,,,,,j,1,0.16220650007016957,,,,,,,,,,,,,,,,,,,,,,,,,,,,,,,,,,,,106,002,2021_Sep_30_1441,joplin1,2021.2.3,59.78607035076569,
_train_cond.csv,0 0 0 1 0 0 1 0 0 0,2,categoryB,j,,,0,6,6,3,2,5,33,11,,,,,,,,,,,,,,,,,,,j,1,0.18601245805621147,,,,,,,,,,,,,,,,,,,,,,,,,,,,,,,,,,,,106,002,2021_Sep_30_1441,joplin1,2021.2.3,59.78607035076569,
_train_cond.csv,1 0 1 1 1 1 1 1 0 1,8,categoryA,f,,,0,6,6,3,2,6,34,1,,,,,,,,,,,,,,,,,,,f,1,0.24854508298449218,,,,,,,,,,,,,,,,,,,,,,,,,,,,,,,,,,,,106,002,2021_Sep_30_1441,joplin1,2021.2.3,59.78607035076569,
_train_cond.csv,0 0 1 1 1 1 1 1 0 0,6,categoryA,f,,,0,6,6,3,2,7,35,6,,,,,,,,,,,,,,,,,,,f,1,0.0847846670076251,,,,,,,,,,,,,,,,,,,,,,,,,,,,,,,,,,,,106,002,2021_Sep_30_1441,joplin1,2021.2.3,59.78607035076569,
_train_cond.csv,1 1 1 0 1 1 0 1 1 1,8,categoryA,f,,,0,6,6,3,2,8,36,4,,,,,,,,,,,,,,,,,,,f,1,0.046647333074361086,,,,,,,,,,,,,,,,,,,,,,,,,,,,,,,,,,,,106,002,2021_Sep_30_1441,joplin1,2021.2.3,59.78607035076569,
_train_cond.csv,0 1 1 1 1 1 1 1 1 0,8,categoryA,f,,,0,6,6,3,2,9,37,0,,,,,,,,,,,,,,,,,,,f,1,0.1786405830644071,,,,,,,,,,,,,,,,,,,,,,,,,,,,,,,,,,,,106,002,2021_Sep_30_1441,joplin1,2021.2.3,59.78607035076569,
_train_cond.csv,1 1 1 0 0 0 0 1 1 1,6,categoryA,f,,,0,6,6,3,2,10,38,3,,,,,,,,,,,,,,,,,,,f,1,0.3366859999950975,,,,,,,,,,,,,,,,,,,,,,,,,,,,,,,,,,,,106,002,2021_Sep_30_1441,joplin1,2021.2.3,59.78607035076569,
_train_cond.csv,0 0 1 0 1 1 0 1 0 0,4,categoryB,j,,,0,6,6,3,2,11,39,9,,,,,,,,,,,,,,,,,,,f,0,0.17720633395947516,,,,,,,,,,,,,,,,,,,,,,,,,,,,,,,,,,,,106,002,2021_Sep_30_1441,joplin1,2021.2.3,59.78607035076569,
_train_cond.csv,1 1 0 1 0 0 1 0 1 1,6,categoryA,f,,,0,6,6,3,2,12,40,2,,,,,,,,,,,,,,,,,,,j,0,0.2561321670655161,,,,,,,,,,,,,,,,,,,,,,,,,,,,,,,,,,,,106,002,2021_Sep_30_1441,joplin1,2021.2.3,59.78607035076569,
_train_cond.csv,1 0 0 0 0 0 0 0 0 1,2,categoryB,j,,,0,6,6,3,2,13,41,7,,,,,,,,,,,,,,,,,,,j,1,0.19523354095872492,,,,,,,,,,,,,,,,,,,,,,,,,,,,,,,,,,,,106,002,2021_Sep_30_1441,joplin1,2021.2.3,59.78607035076569,
_train_cond.csv,,,,,,,0,6,6,3,,,,,,,,,,,,,,,,,,,,,,,,,,space,2.105355625040829,,,,,,,,,,,,,,,,,,,,,,,,,,,,,,,,,,106,002,2021_Sep_30_1441,joplin1,2021.2.3,59.78607035076569,
_train_cond.csv,0 1 0 0 0 0 0 0 1 0,2,categoryB,j,,,0,7,7,1,0,0,0,8,,,,,,,,,,,,,,,,,,,j,1,0.367216374957934,,,,,,,,,,,,,,,,,,,,,,,,,,,,,,,,,,,,106,002,2021_Sep_30_1441,joplin1,2021.2.3,59.78607035076569,
_train_cond.csv,1 1 1 0 1 1 0 1 1 1,8,categoryA,f,,,0,7,7,1,0,1,1,4,,,,,,,,,,,,,,,,,,,f,1,0.2687182920053601,,,,,,,,,,,,,,,,,,,,,,,,,,,,,,,,,,,,106,002,2021_Sep_30_1441,joplin1,2021.2.3,59.78607035076569,
_train_cond.csv,0 0 0 1 1 1 1 0 0 0,4,categoryB,j,,,0,7,7,1,0,2,2,10,,,,,,,,,,,,,,,,,,,j,1,0.1359568340703845,,,,,,,,,,,,,,,,,,,,,,,,,,,,,,,,,,,,106,002,2021_Sep_30_1441,joplin1,2021.2.3,59.78607035076569,
_train_cond.csv,0 0 0 1 0 0 1 0 0 0,2,categoryB,j,,,0,7,7,1,0,3,3,11,,,,,,,,,,,,,,,,,,,j,1,0.08866400003898889,,,,,,,,,,,,,,,,,,,,,,,,,,,,,,,,,,,,106,002,2021_Sep_30_1441,joplin1,2021.2.3,59.78607035076569,
_train_cond.csv,1 1 0 1 1 1 1 0 1 1,8,categoryA,f,,,0,7,7,1,0,4,4,5,,,,,,,,,,,,,,,,,,,j,0,0.2749671669444069,,,,,,,,,,,,,,,,,,,,,,,,,,,,,,,,,,,,106,002,2021_Sep_30_1441,joplin1,2021.2.3,59.78607035076569,
_train_cond.csv,0 1 1 1 1 1 1 1 1 0,8,categoryA,f,,,0,7,7,1,0,5,5,0,,,,,,,,,,,,,,,,,,,f,1,0.30792858405038714,,,,,,,,,,,,,,,,,,,,,,,,,,,,,,,,,,,,106,002,2021_Sep_30_1441,joplin1,2021.2.3,59.78607035076569,
_train_cond.csv,0 0 1 0 0 0 0 1 0 0,2,categoryB,j,,,0,7,7,1,0,6,6,12,,,,,,,,,,,,,,,,,,,f,0,0.22205625008791685,,,,,,,,,,,,,,,,,,,,,,,,,,,,,,,,,,,,106,002,2021_Sep_30_1441,joplin1,2021.2.3,59.78607035076569,
_train_cond.csv,1 1 0 0 0 0 0 0 1 1,4,categoryB,j,,,0,7,7,1,0,7,7,13,,,,,,,,,,,,,,,,,,,j,1,0.06616708298679441,,,,,,,,,,,,,,,,,,,,,,,,,,,,,,,,,,,,106,002,2021_Sep_30_1441,joplin1,2021.2.3,59.78607035076569,
_train_cond.csv,1 0 1 1 1 1 1 1 0 1,8,categoryA,f,,,0,7,7,1,0,8,8,1,,,,,,,,,,,,,,,,,,,f,1,0.1098519170191139,,,,,,,,,,,,,,,,,,,,,,,,,,,,,,,,,,,,106,002,2021_Sep_30_1441,joplin1,2021.2.3,59.78607035076569,
_train_cond.csv,0 0 1 0 1 1 0 1 0 0,4,categoryB,j,,,0,7,7,1,0,9,9,9,,,,,,,,,,,,,,,,,,,f,0,0.30216033302713186,,,,,,,,,,,,,,,,,,,,,,,,,,,,,,,,,,,,106,002,2021_Sep_30_1441,joplin1,2021.2.3,59.78607035076569,
_train_cond.csv,1 0 0 0 0 0 0 0 0 1,2,categoryB,j,,,0,7,7,1,0,10,10,7,,,,,,,,,,,,,,,,,,,j,1,0.2386246669339016,,,,,,,,,,,,,,,,,,,,,,,,,,,,,,,,,,,,106,002,2021_Sep_30_1441,joplin1,2021.2.3,59.78607035076569,
_train_cond.csv,1 1 0 1 0 0 1 0 1 1,6,categoryA,f,,,0,7,7,1,0,11,11,2,,,,,,,,,,,,,,,,,,,j,0,0.1311559999594465,,,,,,,,,,,,,,,,,,,,,,,,,,,,,,,,,,,,106,002,2021_Sep_30_1441,joplin1,2021.2.3,59.78607035076569,
_train_cond.csv,1 1 1 0 0 0 0 1 1 1,6,categoryA,f,,,0,7,7,1,0,12,12,3,,,,,,,,,,,,,,,,,,,f,1,0.09885187505278736,,,,,,,,,,,,,,,,,,,,,,,,,,,,,,,,,,,,106,002,2021_Sep_30_1441,joplin1,2021.2.3,59.78607035076569,
_train_cond.csv,0 0 1 1 1 1 1 1 0 0,6,categoryA,f,,,0,7,7,1,0,13,13,6,,,,,,,,,,,,,,,,,,,f,1,0.01324716699309647,,,,,,,,,,,,,,,,,,,,,,,,,,,,,,,,,,,,106,002,2021_Sep_30_1441,joplin1,2021.2.3,59.78607035076569,
_train_cond.csv,0 1 1 1 1 1 1 1 1 0,8,categoryA,f,,,0,7,7,1,1,0,14,0,,,,,,,,,,,,,,,,,,,f,1,0.2818586661014706,,,,,,,,,,,,,,,,,,,,,,,,,,,,,,,,,,,,106,002,2021_Sep_30_1441,joplin1,2021.2.3,59.78607035076569,
_train_cond.csv,1 1 1 0 0 0 0 1 1 1,6,categoryA,f,,,0,7,7,1,1,1,15,3,,,,,,,,,,,,,,,,,,,f,1,0.3245712909847498,,,,,,,,,,,,,,,,,,,,,,,,,,,,,,,,,,,,106,002,2021_Sep_30_1441,joplin1,2021.2.3,59.78607035076569,
_train_cond.csv,0 0 0 1 1 1 1 0 0 0,4,categoryB,j,,,0,7,7,1,1,2,16,10,,,,,,,,,,,,,,,,,,,j,1,0.19785216602031142,,,,,,,,,,,,,,,,,,,,,,,,,,,,,,,,,,,,106,002,2021_Sep_30_1441,joplin1,2021.2.3,59.78607035076569,
_train_cond.csv,1 1 1 0 1 1 0 1 1 1,8,categoryA,f,,,0,7,7,1,1,3,17,4,,,,,,,,,,,,,,,,,,,f,1,0.2919385830173269,,,,,,,,,,,,,,,,,,,,,,,,,,,,,,,,,,,,106,002,2021_Sep_30_1441,joplin1,2021.2.3,59.78607035076569,
_train_cond.csv,1 0 1 1 1 1 1 1 0 1,8,categoryA,f,,,0,7,7,1,1,4,18,1,,,,,,,,,,,,,,,,,,,f,1,0.23653316707350314,,,,,,,,,,,,,,,,,,,,,,,,,,,,,,,,,,,,106,002,2021_Sep_30_1441,joplin1,2021.2.3,59.78607035076569,
_train_cond.csv,1 0 0 0 0 0 0 0 0 1,2,categoryB,j,,,0,7,7,1,1,5,19,7,,,,,,,,,,,,,,,,,,,j,1,0.17804837494622916,,,,,,,,,,,,,,,,,,,,,,,,,,,,,,,,,,,,106,002,2021_Sep_30_1441,joplin1,2021.2.3,59.78607035076569,
_train_cond.csv,1 1 0 1 1 1 1 0 1 1,8,categoryA,f,,,0,7,7,1,1,6,20,5,,,,,,,,,,,,,,,,,,,j,0,0.29687945905607194,,,,,,,,,,,,,,,,,,,,,,,,,,,,,,,,,,,,106,002,2021_Sep_30_1441,joplin1,2021.2.3,59.78607035076569,
_train_cond.csv,1 1 0 1 0 0 1 0 1 1,6,categoryA,f,,,0,7,7,1,1,7,21,2,,,,,,,,,,,,,,,,,,,j,0,0.18581270810682327,,,,,,,,,,,,,,,,,,,,,,,,,,,,,,,,,,,,106,002,2021_Sep_30_1441,joplin1,2021.2.3,59.78607035076569,
_train_cond.csv,1 1 0 0 0 0 0 0 1 1,4,categoryB,j,,,0,7,7,1,1,8,22,13,,,,,,,,,,,,,,,,,,,j,1,0.3828532920451835,,,,,,,,,,,,,,,,,,,,,,,,,,,,,,,,,,,,106,002,2021_Sep_30_1441,joplin1,2021.2.3,59.78607035076569,
_train_cond.csv,0 0 1 0 0 0 0 1 0 0,2,categoryB,j,,,0,7,7,1,1,9,23,12,,,,,,,,,,,,,,,,,,,f,0,0.06189912499394268,,,,,,,,,,,,,,,,,,,,,,,,,,,,,,,,,,,,106,002,2021_Sep_30_1441,joplin1,2021.2.3,59.78607035076569,
_train_cond.csv,0 0 1 0 1 1 0 1 0 0,4,categoryB,j,,,0,7,7,1,1,10,24,9,,,,,,,,,,,,,,,,,,,f,0,0.2551994590321556,,,,,,,,,,,,,,,,,,,,,,,,,,,,,,,,,,,,106,002,2021_Sep_30_1441,joplin1,2021.2.3,59.78607035076569,
_train_cond.csv,0 1 0 0 0 0 0 0 1 0,2,categoryB,j,,,0,7,7,1,1,11,25,8,,,,,,,,,,,,,,,,,,,j,1,0.05013133294414729,,,,,,,,,,,,,,,,,,,,,,,,,,,,,,,,,,,,106,002,2021_Sep_30_1441,joplin1,2021.2.3,59.78607035076569,
_train_cond.csv,0 0 1 1 1 1 1 1 0 0,6,categoryA,f,,,0,7,7,1,1,12,26,6,,,,,,,,,,,,,,,,,,,f,1,0.25861620798241347,,,,,,,,,,,,,,,,,,,,,,,,,,,,,,,,,,,,106,002,2021_Sep_30_1441,joplin1,2021.2.3,59.78607035076569,
_train_cond.csv,0 0 0 1 0 0 1 0 0 0,2,categoryB,j,,,0,7,7,1,1,13,27,11,,,,,,,,,,,,,,,,,,,j,1,0.13131433294620365,,,,,,,,,,,,,,,,,,,,,,,,,,,,,,,,,,,,106,002,2021_Sep_30_1441,joplin1,2021.2.3,59.78607035076569,
_train_cond.csv,1 0 0 0 0 0 0 0 0 1,2,categoryB,j,,,0,7,7,1,2,0,28,7,,,,,,,,,,,,,,,,,,,j,1,0.4452111660502851,,,,,,,,,,,,,,,,,,,,,,,,,,,,,,,,,,,,106,002,2021_Sep_30_1441,joplin1,2021.2.3,59.78607035076569,
_train_cond.csv,1 1 1 0 1 1 0 1 1 1,8,categoryA,f,,,0,7,7,1,2,1,29,4,,,,,,,,,,,,,,,,,,,f,1,0.2086199999321252,,,,,,,,,,,,,,,,,,,,,,,,,,,,,,,,,,,,106,002,2021_Sep_30_1441,joplin1,2021.2.3,59.78607035076569,
_train_cond.csv,1 1 1 0 0 0 0 1 1 1,6,categoryA,f,,,0,7,7,1,2,2,30,3,,,,,,,,,,,,,,,,,,,f,1,0.10993999999482185,,,,,,,,,,,,,,,,,,,,,,,,,,,,,,,,,,,,106,002,2021_Sep_30_1441,joplin1,2021.2.3,59.78607035076569,
_train_cond.csv,1 1 0 1 1 1 1 0 1 1,8,categoryA,f,,,0,7,7,1,2,3,31,5,,,,,,,,,,,,,,,,,,,j,0,0.031453166040591896,,,,,,,,,,,,,,,,,,,,,,,,,,,,,,,,,,,,106,002,2021_Sep_30_1441,joplin1,2021.2.3,59.78607035076569,
_train_cond.csv,0 0 0 1 1 1 1 0 0 0,4,categoryB,j,,,0,7,7,1,2,4,32,10,,,,,,,,,,,,,,,,,,,j,1,0.04387225001119077,,,,,,,,,,,,,,,,,,,,,,,,,,,,,,,,,,,,106,002,2021_Sep_30_1441,joplin1,2021.2.3,59.78607035076569,
_train_cond.csv,1 1 0 0 0 0 0 0 1 1,4,categoryB,j,,,0,7,7,1,2,5,33,13,,,,,,,,,,,,,,,,,,,j,1,0.39133545802906156,,,,,,,,,,,,,,,,,,,,,,,,,,,,,,,,,,,,106,002,2021_Sep_30_1441,joplin1,2021.2.3,59.78607035076569,
_train_cond.csv,0 0 1 1 1 1 1 1 0 0,6,categoryA,f,,,0,7,7,1,2,6,34,6,,,,,,,,,,,,,,,,,,,f,1,0.11801012500654906,,,,,,,,,,,,,,,,,,,,,,,,,,,,,,,,,,,,106,002,2021_Sep_30_1441,joplin1,2021.2.3,59.78607035076569,
_train_cond.csv,0 0 1 0 0 0 0 1 0 0,2,categoryB,j,,,0,7,7,1,2,7,35,12,,,,,,,,,,,,,,,,,,,f,0,0.02955725009087473,,,,,,,,,,,,,,,,,,,,,,,,,,,,,,,,,,,,106,002,2021_Sep_30_1441,joplin1,2021.2.3,59.78607035076569,
_train_cond.csv,1 1 0 1 0 0 1 0 1 1,6,categoryA,f,,,0,7,7,1,2,8,36,2,,,,,,,,,,,,,,,,,,,j,0,0.35216291702818125,,,,,,,,,,,,,,,,,,,,,,,,,,,,,,,,,,,,106,002,2021_Sep_30_1441,joplin1,2021.2.3,59.78607035076569,
_train_cond.csv,0 1 0 0 0 0 0 0 1 0,2,categoryB,j,,,0,7,7,1,2,9,37,8,,,,,,,,,,,,,,,,,,,j,1,0.04977179202251136,,,,,,,,,,,,,,,,,,,,,,,,,,,,,,,,,,,,106,002,2021_Sep_30_1441,joplin1,2021.2.3,59.78607035076569,
_train_cond.csv,0 0 1 0 1 1 0 1 0 0,4,categoryB,j,,,0,7,7,1,2,10,38,9,,,,,,,,,,,,,,,,,,,f,0,0.34771462494973093,,,,,,,,,,,,,,,,,,,,,,,,,,,,,,,,,,,,106,002,2021_Sep_30_1441,joplin1,2021.2.3,59.78607035076569,
_train_cond.csv,1 0 1 1 1 1 1 1 0 1,8,categoryA,f,,,0,7,7,1,2,11,39,1,,,,,,,,,,,,,,,,,,,f,1,0.33164062502328306,,,,,,,,,,,,,,,,,,,,,,,,,,,,,,,,,,,,106,002,2021_Sep_30_1441,joplin1,2021.2.3,59.78607035076569,
_train_cond.csv,0 1 1 1 1 1 1 1 1 0,8,categoryA,f,,,0,7,7,1,2,12,40,0,,,,,,,,,,,,,,,,,,,f,1,0.2919175830902532,,,,,,,,,,,,,,,,,,,,,,,,,,,,,,,,,,,,106,002,2021_Sep_30_1441,joplin1,2021.2.3,59.78607035076569,
_train_cond.csv,0 0 0 1 0 0 1 0 0 0,2,categoryB,j,,,0,7,7,1,2,13,41,11,,,,,,,,,,,,,,,,,,,j,1,0.26307837502099574,,,,,,,,,,,,,,,,,,,,,,,,,,,,,,,,,,,,106,002,2021_Sep_30_1441,joplin1,2021.2.3,59.78607035076569,
_train_cond.csv,,,,,,,0,7,7,1,,,,,,,,,,,,,,,,,,,,,,,,,,space,2.3308718340704218,,,,,,,,,,,,,,,,,,,,,,,,,,,,,,,,,,106,002,2021_Sep_30_1441,joplin1,2021.2.3,59.78607035076569,
,,,,,,,,,,,,,,,,,,,,,,,,,,,,,,,,,,,,,,q,16.141172832925804,,,,,,,,,,,,,,,,,,,,,,,,,,,,,,,,106,002,2021_Sep_30_1441,joplin1,2021.2.3,59.78607035076569,
,,,,,,,,,,,,,,,,,,,,,,,,,,,,,,,,,,,,,,,,j,11.583505790913478,,,,,,,,,,,,,,,,,,,,,,,,,,,,,,106,002,2021_Sep_30_1441,joplin1,2021.2.3,59.78607035076569,
,,,,,,,,,,,,,,,,,,,,,,,,,,,,,,,,,,,,,,,,,,space,3.157874708995223,,,,,,,,,,,,,,,,,,,,,,,,,,,,106,002,2021_Sep_30_1441,joplin1,2021.2.3,59.78607035076569,
,,,,,,,,,,,,,,,,,,,,,,,,,,,,,,,,,,,,,,,,,,,,space,4.150942375068553,,,,,,,,,,,,,,,,,,,,,,,,,,106,002,2021_Sep_30_1441,joplin1,2021.2.3,59.78607035076569,
,0 0 0 0 0 0 0 1 0 0,1,categoryB,j,genfile2.csv,0,,,,,,,,,0,0,0,1,0,0,0,53,,,,,,,,,,,,,,,,,,,,,,,,f,0,0.9154619160108268,,,,,,,,,,,,,,,,,,,,,,,106,002,2021_Sep_30_1441,joplin1,2021.2.3,59.78607035076569,
,1 0 0 0 0 1 1 1 1 1,6,categoryA,f,genfile2.csv,0,,,,,,,,,0,0,0,1,0,1,1,33,,,,,,,,,,,,,,,,,,,,,,,,f,1,0.12217283400241286,,,,,,,,,,,,,,,,,,,,,,,106,002,2021_Sep_30_1441,joplin1,2021.2.3,59.78607035076569,
,1 1 0 1 0 0 1 0 1 1,6,categoryA,f,genfile2.csv,1,,,,,,,,,0,0,0,1,0,2,2,4,,,,,,,,,,,,,,,,,,,,,,,,j,0,0.00382320792414248,,,,,,,,,,,,,,,,,,,,,,,106,002,2021_Sep_30_1441,joplin1,2021.2.3,59.78607035076569,
,1 1 1 0 1 1 0 1 1 1,8,categoryA,f,genfile2.csv,1,,,,,,,,,0,0,0,1,0,3,3,6,,,,,,,,,,,,,,,,,,,,,,,,f,1,0.4083059999393299,,,,,,,,,,,,,,,,,,,,,,,106,002,2021_Sep_30_1441,joplin1,2021.2.3,59.78607035076569,
,0 1 1 0 0 1 0 1 0 0,4,categoryB,j,genfile2.csv,0,,,,,,,,,0,0,0,1,0,4,4,38,,,,,,,,,,,,,,,,,,,,,,,,f,0,0.22792529198341072,,,,,,,,,,,,,,,,,,,,,,,106,002,2021_Sep_30_1441,joplin1,2021.2.3,59.78607035076569,
,1 0 0 0 0 0 1 0 1 0,3,categoryB,j,genfile2.csv,0,,,,,,,,,0,0,0,1,0,5,5,44,,,,,,,,,,,,,,,,,,,,,,,,j,1,0.199249624973163,,,,,,,,,,,,,,,,,,,,,,,106,002,2021_Sep_30_1441,joplin1,2021.2.3,59.78607035076569,
,1 1 1 0 0 0 0 1 1 1,6,categoryA,f,genfile2.csv,1,,,,,,,,,0,0,0,1,0,6,6,5,,,,,,,,,,,,,,,,,,,,,,,,f,1,1.03742708300706,,,,,,,,,,,,,,,,,,,,,,,106,002,2021_Sep_30_1441,joplin1,2021.2.3,59.78607035076569,
,1 1 0 0 0 0 0 0 1 1,4,categoryB,j,genfile2.csv,1,,,,,,,,,0,0,0,1,0,7,7,15,,,,,,,,,,,,,,,,,,,,,,,,j,1,0.26524445798713714,,,,,,,,,,,,,,,,,,,,,,,106,002,2021_Sep_30_1441,joplin1,2021.2.3,59.78607035076569,
,1 0 1 1 0 0 0 0 1 0,4,categoryB,j,genfile2.csv,0,,,,,,,,,0,0,0,1,0,8,8,36,,,,,,,,,,,,,,,,,,,,,,,,j,1,0.08244179107714444,,,,,,,,,,,,,,,,,,,,,,,106,002,2021_Sep_30_1441,joplin1,2021.2.3,59.78607035076569,
,0 0 1 1 1 0 0 1 0 0,4,categoryB,j,genfile2.csv,0,,,,,,,,,0,0,0,1,0,9,9,37,,,,,,,,,,,,,,,,,,,,,,,,f,0,0.1085916660958901,,,,,,,,,,,,,,,,,,,,,,,106,002,2021_Sep_30_1441,joplin1,2021.2.3,59.78607035076569,
,0 0 1 0 1 1 0 1 0 0,4,categoryB,j,genfile2.csv,1,,,,,,,,,0,0,0,1,0,10,10,11,,,,,,,,,,,,,,,,,,,,,,,,f,0,0.12523833301384002,,,,,,,,,,,,,,,,,,,,,,,106,002,2021_Sep_30_1441,joplin1,2021.2.3,59.78607035076569,
,0 0 1 0 0 0 0 0 0 0,1,categoryB,j,genfile2.csv,0,,,,,,,,,0,0,0,1,0,11,11,55,,,,,,,,,,,,,,,,,,,,,,,,j,1,0.08346750005148351,,,,,,,,,,,,,,,,,,,,,,,106,002,2021_Sep_30_1441,joplin1,2021.2.3,59.78607035076569,
,1 0 0 0 0 0 0 0 0 1,2,categoryB,j,genfile2.csv,1,,,,,,,,,0,0,0,1,0,12,12,9,,,,,,,,,,,,,,,,,,,,,,,,j,1,0.212950500077568,,,,,,,,,,,,,,,,,,,,,,,106,002,2021_Sep_30_1441,joplin1,2021.2.3,59.78607035076569,
,0 1 0 1 0 0 0 0 0 0,2,categoryB,j,genfile2.csv,0,,,,,,,,,0,0,0,1,0,13,13,49,,,,,,,,,,,,,,,,,,,,,,,,j,1,0.00852179096546024,,,,,,,,,,,,,,,,,,,,,,,106,002,2021_Sep_30_1441,joplin1,2021.2.3,59.78607035076569,
,1 0 1 1 1 1 1 1 0 1,8,categoryA,f,genfile2.csv,1,,,,,,,,,0,0,0,1,0,14,14,3,,,,,,,,,,,,,,,,,,,,,,,,f,1,0.03050120803527534,,,,,,,,,,,,,,,,,,,,,,,106,002,2021_Sep_30_1441,joplin1,2021.2.3,59.78607035076569,
,1 1 1 1 1 1 1 1 1 1,10,categoryA,f,genfile2.csv,0,,,,,,,,,0,0,0,1,0,15,15,1,,,,,,,,,,,,,,,,,,,,,,,,f,1,0.15427654201630503,,,,,,,,,,,,,,,,,,,,,,,106,002,2021_Sep_30_1441,joplin1,2021.2.3,59.78607035076569,
,0 1 1 0 0 0 0 0 1 1,4,categoryB,j,genfile2.csv,0,,,,,,,,,0,0,0,1,0,16,16,40,,,,,,,,,,,,,,,,,,,,,,,,j,1,0.3909327919827774,,,,,,,,,,,,,,,,,,,,,,,106,002,2021_Sep_30_1441,joplin1,2021.2.3,59.78607035076569,
,1 1 0 1 1 1 1 0 0 1,7,categoryA,f,genfile2.csv,0,,,,,,,,,0,0,0,1,0,17,17,29,,,,,,,,,,,,,,,,,,,,,,,,j,0,0.2906740000471473,,,,,,,,,,,,,,,,,,,,,,,106,002,2021_Sep_30_1441,joplin1,2021.2.3,59.78607035076569,
,1 1 1 1 0 1 1 1 0 1,8,categoryA,f,genfile2.csv,0,,,,,,,,,0,0,0,1,0,18,18,24,,,,,,,,,,,,,,,,,,,,,,,,f,1,0.22040658304467797,,,,,,,,,,,,,,,,,,,,,,,106,002,2021_Sep_30_1441,joplin1,2021.2.3,59.78607035076569,
,1 1 1 1 1 1 0 1 1 1,9,categoryA,f,genfile2.csv,0,,,,,,,,,0,0,0,1,0,19,19,18,,,,,,,,,,,,,,,,,,,,,,,,f,1,0.11064945801626891,,,,,,,,,,,,,,,,,,,,,,,106,002,2021_Sep_30_1441,joplin1,2021.2.3,59.78607035076569,
,0 1 0 0 0 1 0 1 0 0,3,categoryB,j,genfile2.csv,0,,,,,,,,,0,0,0,1,0,20,20,41,,,,,,,,,,,,,,,,,,,,,,,,f,0,0.18245737499091774,,,,,,,,,,,,,,,,,,,,,,,106,002,2021_Sep_30_1441,joplin1,2021.2.3,59.78607035076569,
,0 1 0 0 0 0 0 0 1 1,3,categoryB,j,genfile2.csv,0,,,,,,,,,0,0,0,1,0,21,21,42,,,,,,,,,,,,,,,,,,,,,,,,j,1,0.1708995410008356,,,,,,,,,,,,,,,,,,,,,,,106,002,2021_Sep_30_1441,joplin1,2021.2.3,59.78607035076569,
,1 0 1 1 1 0 1 0 1 1,7,categoryA,f,genfile2.csv,0,,,,,,,,,0,0,0,1,0,22,22,26,,,,,,,,,,,,,,,,,,,,,,,,j,0,0.209821708034724,,,,,,,,,,,,,,,,,,,,,,,106,002,2021_Sep_30_1441,joplin1,2021.2.3,59.78607035076569,
,1 1 0 1 1 1 1 0 1 1,8,categoryA,f,genfile2.csv,1,,,,,,,,,0,0,0,1,0,23,23,7,,,,,,,,,,,,,,,,,,,,,,,,j,0,0.05467516602948308,,,,,,,,,,,,,,,,,,,,,,,106,002,2021_Sep_30_1441,joplin1,2021.2.3,59.78607035076569,
,0 0 0 1 0 0 0 0 0 0,1,categoryB,j,genfile2.csv,0,,,,,,,,,0,0,0,1,0,24,24,52,,,,,,,,,,,,,,,,,,,,,,,,j,1,0.007866583066061139,,,,,,,,,,,,,,,,,,,,,,,106,002,2021_Sep_30_1441,joplin1,2021.2.3,59.78607035076569,
,0 0 1 1 1 1 1 1 0 0,6,categoryA,f,genfile2.csv,1,,,,,,,,,0,0,0,1,0,25,25,8,,,,,,,,,,,,,,,,,,,,,,,,f,1,0.3644266249611974,,,,,,,,,,,,,,,,,,,,,,,106,002,2021_Sep_30_1441,joplin1,2021.2.3,59.78607035076569,
,0 0 0 0 0 0 0 0 0 0,0,categoryB,j,genfile2.csv,0,,,,,,,,,0,0,0,1,0,26,26,0,,,,,,,,,,,,,,,,,,,,,,,,j,1,0.15608912496827543,,,,,,,,,,,,,,,,,,,,,,,106,002,2021_Sep_30_1441,joplin1,2021.2.3,59.78607035076569,
,0 1 1 1 0 1 0 0 1 1,6,categoryA,f,genfile2.csv,0,,,,,,,,,0,0,0,1,0,27,27,34,,,,,,,,,,,,,,,,,,,,,,,,j,0,0.7938852079678327,,,,,,,,,,,,,,,,,,,,,,,106,002,2021_Sep_30_1441,joplin1,2021.2.3,59.78607035076569,
,0 0 0 0 0 1 0 0 0 0,1,categoryB,j,genfile2.csv,0,,,,,,,,,0,0,0,1,0,28,28,51,,,,,,,,,,,,,,,,,,,,,,,,j,1,0.19258320797234774,,,,,,,,,,,,,,,,,,,,,,,106,002,2021_Sep_30_1441,joplin1,2021.2.3,59.78607035076569,
,0 1 1 1 0 0 0 0 0 0,3,categoryB,j,genfile2.csv,0,,,,,,,,,0,0,0,1,0,29,29,43,,,,,,,,,,,,,,,,,,,,,,,,j,1,0.2986149169737473,,,,,,,,,,,,,,,,,,,,,,,106,002,2021_Sep_30_1441,joplin1,2021.2.3,59.78607035076569,
,1 1 1 0 0 1 0 1 1 0,6,categoryA,f,genfile2.csv,0,,,,,,,,,0,0,0,1,0,30,30,32,,,,,,,,,,,,,,,,,,,,,,,,f,1,0.06751845905091614,,,,,,,,,,,,,,,,,,,,,,,106,002,2021_Sep_30_1441,joplin1,2021.2.3,59.78607035076569,
,0 0 1 0 0 0 0 0 0 1,2,categoryB,j,genfile2.csv,0,,,,,,,,,0,0,0,1,0,31,31,47,,,,,,,,,,,,,,,,,,,,,,,,j,1,0.021782750030979514,,,,,,,,,,,,,,,,,,,,,,,106,002,2021_Sep_30_1441,joplin1,2021.2.3,59.78607035076569,
,0 1 1 1 1 1 1 1 1 0,8,categoryA,f,genfile2.csv,1,,,,,,,,,0,0,0,1,0,32,32,2,,,,,,,,,,,,,,,,,,,,,,,,f,1,0.12272870901506394,,,,,,,,,,,,,,,,,,,,,,,106,002,2021_Sep_30_1441,joplin1,2021.2.3,59.78607035076569,
,1 1 1 1 1 0 1 1 1 1,9,categoryA,f,genfile2.csv,0,,,,,,,,,0,0,0,1,0,33,33,17,,,,,,,,,,,,,,,,,,,,,,,,f,1,0.04011287505272776,,,,,,,,,,,,,,,,,,,,,,,106,002,2021_Sep_30_1441,joplin1,2021.2.3,59.78607035076569,
,0 1 1 1 0 1 1 1 1 1,8,categoryA,f,genfile2.csv,0,,,,,,,,,0,0,0,1,0,34,34,23,,,,,,,,,,,,,,,,,,,,,,,,f,1,0.28088479198049754,,,,,,,,,,,,,,,,,,,,,,,106,002,2021_Sep_30_1441,joplin1,2021.2.3,59.78607035076569,
,0 1 0 0 0 0 1 0 0 1,3,categoryB,j,genfile2.csv,0,,,,,,,,,0,0,0,1,0,35,35,45,,,,,,,,,,,,,,,,,,,,,,,,j,1,0.1766762500628829,,,,,,,,,,,,,,,,,,,,,,,106,002,2021_Sep_30_1441,joplin1,2021.2.3,59.78607035076569,
,0 1 1 1 0 1 0 1 1 0,6,categoryA,f,genfile2.csv,0,,,,,,,,,0,0,0,1,0,36,36,35,,,,,,,,,,,,,,,,,,,,,,,,f,1,0.20523341605439782,,,,,,,,,,,,,,,,,,,,,,,106,002,2021_Sep_30_1441,joplin1,2021.2.3,59.78607035076569,
,1 1 0 0 1 1 1 1 1 1,8,categoryA,f,genfile2.csv,0,,,,,,,,,0,0,0,1,0,37,37,21,,,,,,,,,,,,,,,,,,,,,,,,f,1,0.16096091701183468,,,,,,,,,,,,,,,,,,,,,,,106,002,2021_Sep_30_1441,joplin1,2021.2.3,59.78607035076569,
,1 1 1 1 0 1 0 1 0 1,7,categoryA,f,genfile2.csv,0,,,,,,,,,0,0,0,1,0,38,38,27,,,,,,,,,,,,,,,,,,,,,,,,f,1,0.32697687507607043,,,,,,,,,,,,,,,,,,,,,,,106,002,2021_Sep_30_1441,joplin1,2021.2.3,59.78607035076569,
,1 1 1 0 0 1 1 1 1 1,8,categoryA,f,genfile2.csv,0,,,,,,,,,0,0,0,1,0,39,39,22,,,,,,,,,,,,,,,,,,,,,,,,f,1,0.300622416078113,,,,,,,,,,,,,,,,,,,,,,,106,002,2021_Sep_30_1441,joplin1,2021.2.3,59.78607035076569,
,1 0 0 0 0 0 0 0 0 0,1,categoryB,j,genfile2.csv,0,,,,,,,,,0,0,0,1,0,40,40,54,,,,,,,,,,,,,,,,,,,,,,,,j,1,0.020001708064228296,,,,,,,,,,,,,,,,,,,,,,,106,002,2021_Sep_30_1441,joplin1,2021.2.3,59.78607035076569,
,1 1 0 1 1 1 0 0 1 1,7,categoryA,f,genfile2.csv,0,,,,,,,,,0,0,0,1,0,41,41,28,,,,,,,,,,,,,,,,,,,,,,,,j,0,7.062498480081558e-05,,,,,,,,,,,,,,,,,,,,,,,106,002,2021_Sep_30_1441,joplin1,2021.2.3,59.78607035076569,
,0 0 0 1 1 1 1 0 0 0,4,categoryB,j,genfile2.csv,1,,,,,,,,,0,0,0,1,0,42,42,12,,,,,,,,,,,,,,,,,,,,,,,,j,1,0.29190299997571856,,,,,,,,,,,,,,,,,,,,,,,106,002,2021_Sep_30_1441,joplin1,2021.2.3,59.78607035076569,
,1 1 1 1 1 0 1 0 1 1,8,categoryA,f,genfile2.csv,0,,,,,,,,,0,0,0,1,0,43,43,25,,,,,,,,,,,,,,,,,,,,,,,,j,0,0.23723570897709578,,,,,,,,,,,,,,,,,,,,,,,106,002,2021_Sep_30_1441,joplin1,2021.2.3,59.78607035076569,
,0 0 1 0 0 0 0 0 1 0,2,categoryB,j,genfile2.csv,0,,,,,,,,,0,0,0,1,0,44,44,46,,,,,,,,,,,,,,,,,,,,,,,,j,1,0.27178616693709046,,,,,,,,,,,,,,,,,,,,,,,106,002,2021_Sep_30_1441,joplin1,2021.2.3,59.78607035076569,
,0 0 0 0 0 0 0 0 1 1,2,categoryB,j,genfile2.csv,0,,,,,,,,,0,0,0,1,0,45,45,50,,,,,,,,,,,,,,,,,,,,,,,,j,1,0.1629020000109449,,,,,,,,,,,,,,,,,,,,,,,106,002,2021_Sep_30_1441,joplin1,2021.2.3,59.78607035076569,
,1 1 1 1 0 1 1 1 1 1,9,categoryA,f,genfile2.csv,0,,,,,,,,,0,0,0,1,0,46,46,20,,,,,,,,,,,,,,,,,,,,,,,,f,1,0.12132891698274761,,,,,,,,,,,,,,,,,,,,,,,106,002,2021_Sep_30_1441,joplin1,2021.2.3,59.78607035076569,
,0 0 1 1 1 1 1 0 0 1,6,categoryA,f,genfile2.csv,0,,,,,,,,,0,0,0,1,0,47,47,31,,,,,,,,,,,,,,,,,,,,,,,,j,0,0.34629979194141924,,,,,,,,,,,,,,,,,,,,,,,106,002,2021_Sep_30_1441,joplin1,2021.2.3,59.78607035076569,
,0 0 0 1 0 0 1 0 0 0,2,categoryB,j,genfile2.csv,1,,,,,,,,,0,0,0,1,0,48,48,13,,,,,,,,,,,,,,,,,,,,,,,,j,1,1.059468041989021,,,,,,,,,,,,,,,,,,,,,,,106,002,2021_Sep_30_1441,joplin1,2021.2.3,59.78607035076569,
,0 0 0 0 0 0 1 0 0 1,2,categoryB,j,genfile2.csv,0,,,,,,,,,0,0,0,1,0,49,49,48,,,,,,,,,,,,,,,,,,,,,,,,j,1,0.19579912500921637,,,,,,,,,,,,,,,,,,,,,,,106,002,2021_Sep_30_1441,joplin1,2021.2.3,59.78607035076569,
,1 1 1 1 1 1 1 0 1 1,9,categoryA,f,genfile2.csv,0,,,,,,,,,0,0,0,1,0,50,50,19,,,,,,,,,,,,,,,,,,,,,,,,j,0,0.2423908340279013,,,,,,,,,,,,,,,,,,,,,,,106,002,2021_Sep_30_1441,joplin1,2021.2.3,59.78607035076569,
,1 1 1 1 1 0 1 1 0 0,7,categoryA,f,genfile2.csv,0,,,,,,,,,0,0,0,1,0,51,51,30,,,,,,,,,,,,,,,,,,,,,,,,f,1,0.21933866594918072,,,,,,,,,,,,,,,,,,,,,,,106,002,2021_Sep_30_1441,joplin1,2021.2.3,59.78607035076569,
,0 1 0 0 0 0 0 0 1 0,2,categoryB,j,genfile2.csv,1,,,,,,,,,0,0,0,1,0,52,52,10,,,,,,,,,,,,,,,,,,,,,,,,j,1,0.1117658750154078,,,,,,,,,,,,,,,,,,,,,,,106,002,2021_Sep_30_1441,joplin1,2021.2.3,59.78607035076569,
,0 0 1 0 0 1 0 0 1 1,4,categoryB,j,genfile2.csv,0,,,,,,,,,0,0,0,1,0,53,53,39,,,,,,,,,,,,,,,,,,,,,,,,j,1,0.08021024998743087,,,,,,,,,,,,,,,,,,,,,,,106,002,2021_Sep_30_1441,joplin1,2021.2.3,59.78607035076569,
,0 1 1 1 1 1 1 1 1 1,9,categoryA,f,genfile2.csv,0,,,,,,,,,0,0,0,1,0,54,54,16,,,,,,,,,,,,,,,,,,,,,,,,f,1,0.08242808294016868,,,,,,,,,,,,,,,,,,,,,,,106,002,2021_Sep_30_1441,joplin1,2021.2.3,59.78607035076569,
,0 0 1 0 0 0 0 1 0 0,2,categoryB,j,genfile2.csv,1,,,,,,,,,0,0,0,1,0,55,55,14,,,,,,,,,,,,,,,,,,,,,,,,f,0,0.16460329201072454,,,,,,,,,,,,,,,,,,,,,,,106,002,2021_Sep_30_1441,joplin1,2021.2.3,59.78607035076569,
,,,,,genfile2.csv,,,,,,,,,,0,0,0,1,,,,,,,,,,,,,,,,,,space,1.923870458966121,,,,,,,,,,,,,,,,,,,,,,,,,,,,,,,,,,106,002,2021_Sep_30_1441,joplin1,2021.2.3,59.78607035076569,
,0 0 0 0 0 0 0 0 0 1,1,categoryB,j,genfile1.csv,0,,,,,,,,,0,1,1,0,0,0,0,52,,,,,,,,,,,,,,,,,,,,,,,,j,1,0.3900403749430552,,,,,,,,,,,,,,,,,,,,,,,106,002,2021_Sep_30_1441,joplin1,2021.2.3,59.78607035076569,
,1 0 1 0 0 0 1 0 0 0,3,categoryB,j,genfile1.csv,0,,,,,,,,,0,1,1,0,0,1,1,44,,,,,,,,,,,,,,,,,,,,,,,,j,1,0.06217916600871831,,,,,,,,,,,,,,,,,,,,,,,106,002,2021_Sep_30_1441,joplin1,2021.2.3,59.78607035076569,
,1 0 1 1 1 1 0 1 0 0,6,categoryA,f,genfile1.csv,0,,,,,,,,,0,1,1,0,0,2,2,32,,,,,,,,,,,,,,,,,,,,,,,,f,1,0.15243449993431568,,,,,,,,,,,,,,,,,,,,,,,106,002,2021_Sep_30_1441,joplin1,2021.2.3,59.78607035076569,
,1 0 1 1 0 0 0 0 0 0,3,categoryB,j,genfile1.csv,0,,,,,,,,,0,1,1,0,0,3,3,41,,,,,,,,,,,,,,,,,,,,,,,,j,1,0.3749602920142934,,,,,,,,,,,,,,,,,,,,,,,106,002,2021_Sep_30_1441,joplin1,2021.2.3,59.78607035076569,
,1 0 1 0 1 1 0 1 1 0,6,categoryA,f,genfile1.csv,0,,,,,,,,,0,1,1,0,0,4,4,33,,,,,,,,,,,,,,,,,,,,,,,,f,1,0.27624004101380706,,,,,,,,,,,,,,,,,,,,,,,106,002,2021_Sep_30_1441,joplin1,2021.2.3,59.78607035076569,
,0 0 0 1 0 0 0 0 0 1,2,categoryB,j,genfile1.csv,0,,,,,,,,,0,1,1,0,0,5,5,50,,,,,,,,,,,,,,,,,,,,,,,,j,1,0.3843767080688849,,,,,,,,,,,,,,,,,,,,,,,106,002,2021_Sep_30_1441,joplin1,2021.2.3,59.78607035076569,
,1 1 0 0 1 1 0 0 1 1,6,categoryA,f,genfile1.csv,0,,,,,,,,,0,1,1,0,0,6,6,35,,,,,,,,,,,,,,,,,,,,,,,,j,0,0.23471066600177437,,,,,,,,,,,,,,,,,,,,,,,106,002,2021_Sep_30_1441,joplin1,2021.2.3,59.78607035076569,
,1 0 1 0 1 1 0 0 0 0,4,categoryB,j,genfile1.csv,0,,,,,,,,,0,1,1,0,0,7,7,38,,,,,,,,,,,,,,,,,,,,,,,,j,1,0.13458954100497067,,,,,,,,,,,,,,,,,,,,,,,106,002,2021_Sep_30_1441,joplin1,2021.2.3,59.78607035076569,
,0 0 1 0 1 0 0 0 0 0,2,categoryB,j,genfile1.csv,0,,,,,,,,,0,1,1,0,0,8,8,49,,,,,,,,,,,,,,,,,,,,,,,,j,1,0.1013436249922961,,,,,,,,,,,,,,,,,,,,,,,106,002,2021_Sep_30_1441,joplin1,2021.2.3,59.78607035076569,
,1 0 1 1 1 1 1 1 1 1,9,categoryA,f,genfile1.csv,0,,,,,,,,,0,1,1,0,0,9,9,16,,,,,,,,,,,,,,,,,,,,,,,,f,1,0.24660420801956207,,,,,,,,,,,,,,,,,,,,,,,106,002,2021_Sep_30_1441,joplin1,2021.2.3,59.78607035076569,
,0 1 1 1 1 1 1 1 1 0,8,categoryA,f,genfile1.csv,1,,,,,,,,,0,1,1,0,0,10,10,2,,,,,,,,,,,,,,,,,,,,,,,,f,1,0.1548362079774961,,,,,,,,,,,,,,,,,,,,,,,106,002,2021_Sep_30_1441,joplin1,2021.2.3,59.78607035076569,
,1 1 1 0 1 1 1 1 1 0,8,categoryA,f,genfile1.csv,0,,,,,,,,,0,1,1,0,0,11,11,22,,,,,,,,,,,,,,,,,,,,,,,,f,1,0.1804917500121519,,,,,,,,,,,,,,,,,,,,,,,106,002,2021_Sep_30_1441,joplin1,2021.2.3,59.78607035076569,
,0 0 0 0 0 0 1 0 0 0,1,categoryB,j,genfile1.csv,0,,,,,,,,,0,1,1,0,0,12,12,53,,,,,,,,,,,,,,,,,,,,,,,,j,1,0.12977187510114163,,,,,,,,,,,,,,,,,,,,,,,106,002,2021_Sep_30_1441,joplin1,2021.2.3,59.78607035076569,
,0 1 0 0 1 0 0 1 1 0,4,categoryB,j,genfile1.csv,0,,,,,,,,,0,1,1,0,0,13,13,37,,,,,,,,,,,,,,,,,,,,,,,,f,0,0.13785400008782744,,,,,,,,,,,,,,,,,,,,,,,106,002,2021_Sep_30_1441,joplin1,2021.2.3,59.78607035076569,
,0 1 0 0 0 0 0 0 0 0,1,categoryB,j,genfile1.csv,0,,,,,,,,,0,1,1,0,0,14,14,54,,,,,,,,,,,,,,,,,,,,,,,,j,1,0.08779087499715388,,,,,,,,,,,,,,,,,,,,,,,106,002,2021_Sep_30_1441,joplin1,2021.2.3,59.78607035076569,
,0 0 1 0 1 0 0 0 1 0,3,categoryB,j,genfile1.csv,0,,,,,,,,,0,1,1,0,0,15,15,45,,,,,,,,,,,,,,,,,,,,,,,,j,1,0.1142272501019761,,,,,,,,,,,,,,,,,,,,,,,106,002,2021_Sep_30_1441,joplin1,2021.2.3,59.78607035076569,
,1 0 1 1 1 1 1 1 0 1,8,categoryA,f,genfile1.csv,1,,,,,,,,,0,1,1,0,0,16,16,3,,,,,,,,,,,,,,,,,,,,,,,,f,1,0.2818578340811655,,,,,,,,,,,,,,,,,,,,,,,106,002,2021_Sep_30_1441,joplin1,2021.2.3,59.78607035076569,
,1 1 1 0 0 0 0 1 1 1,6,categoryA,f,genfile1.csv,1,,,,,,,,,0,1,1,0,0,17,17,5,,,,,,,,,,,,,,,,,,,,,,,,f,1,0.22924025007523596,,,,,,,,,,,,,,,,,,,,,,,106,002,2021_Sep_30_1441,joplin1,2021.2.3,59.78607035076569,
,0 1 1 1 1 1 1 0 1 1,8,categoryA,f,genfile1.csv,0,,,,,,,,,0,1,1,0,0,18,18,23,,,,,,,,,,,,,,,,,,,,,,,,j,0,0.20965249999426305,,,,,,,,,,,,,,,,,,,,,,,106,002,2021_Sep_30_1441,joplin1,2021.2.3,59.78607035076569,
,0 0 1 1 0 0 0 0 0 0,2,categoryB,j,genfile1.csv,0,,,,,,,,,0,1,1,0,0,19,19,48,,,,,,,,,,,,,,,,,,,,,,,,j,1,0.2626552090514451,,,,,,,,,,,,,,,,,,,,,,,106,002,2021_Sep_30_1441,joplin1,2021.2.3,59.78607035076569,
,1 1 1 1 1 1 1 1 0 1,9,categoryA,f,genfile1.csv,0,,,,,,,,,0,1,1,0,0,20,20,18,,,,,,,,,,,,,,,,,,,,,,,,f,1,0.11889058304950595,,,,,,,,,,,,,,,,,,,,,,,106,002,2021_Sep_30_1441,joplin1,2021.2.3,59.78607035076569,
,1 1 0 1 1 1 1 1 1 1,9,categoryA,f,genfile1.csv,0,,,,,,,,,0,1,1,0,0,21,21,19,,,,,,,,,,,,,,,,,,,,,,,,f,1,0.0935537499608472,,,,,,,,,,,,,,,,,,,,,,,106,002,2021_Sep_30_1441,joplin1,2021.2.3,59.78607035076569,
,0 1 0 0 1 1 0 0 1 0,4,categoryB,j,genfile1.csv,0,,,,,,,,,0,1,1,0,0,22,22,40,,,,,,,,,,,,,,,,,,,,,,,,j,1,0.14249008300248533,,,,,,,,,,,,,,,,,,,,,,,106,002,2021_Sep_30_1441,joplin1,2021.2.3,59.78607035076569,
,1 1 1 0 0 1 1 1 0 0,6,categoryA,f,genfile1.csv,0,,,,,,,,,0,1,1,0,0,23,23,31,,,,,,,,,,,,,,,,,,,,,,,,f,1,0.13989650004077703,,,,,,,,,,,,,,,,,,,,,,,106,002,2021_Sep_30_1441,joplin1,2021.2.3,59.78607035076569,
,1 0 1 0 0 0 0 0 0 0,2,categoryB,j,genfile1.csv,0,,,,,,,,,0,1,1,0,0,24,24,47,,,,,,,,,,,,,,,,,,,,,,,,j,1,0.12300258304458112,,,,,,,,,,,,,,,,,,,,,,,106,002,2021_Sep_30_1441,joplin1,2021.2.3,59.78607035076569,
,0 0 1 1 0 0 1 0 1 0,4,categoryB,j,genfile1.csv,0,,,,,,,,,0,1,1,0,0,25,25,36,,,,,,,,,,,,,,,,,,,,,,,,j,1,0.10547054093331099,,,,,,,,,,,,,,,,,,,,,,,106,002,2021_Sep_30_1441,joplin1,2021.2.3,59.78607035076569,
,1 1 0 0 0 0 0 0 1 1,4,categoryB,j,genfile1.csv,1,,,,,,,,,0,1,1,0,0,26,26,15,,,,,,,,,,,,,,,,,,,,,,,,j,1,0.23016020795330405,,,,,,,,,,,,,,,,,,,,,,,106,002,2021_Sep_30_1441,joplin1,2021.2.3,59.78607035076569,
,0 0 0 0 0 0 0 0 0 0,0,categoryB,j,genfile1.csv,0,,,,,,,,,0,1,1,0,0,27,27,0,,,,,,,,,,,,,,,,,,,,,,,,j,1,0.027319957967847586,,,,,,,,,,,,,,,,,,,,,,,106,002,2021_Sep_30_1441,joplin1,2021.2.3,59.78607035076569,
,1 1 0 0 1 1 0 1 1 0,6,categoryA,f,genfile1.csv,0,,,,,,,,,0,1,1,0,0,28,28,34,,,,,,,,,,,,,,,,,,,,,,,,f,1,0.1750858339946717,,,,,,,,,,,,,,,,,,,,,,,106,002,2021_Sep_30_1441,joplin1,2021.2.3,59.78607035076569,
,1 1 0 1 1 1 1 0 1 1,8,categoryA,f,genfile1.csv,1,,,,,,,,,0,1,1,0,0,29,29,7,,,,,,,,,,,,,,,,,,,,,,,,j,0,0.03864483302459121,,,,,,,,,,,,,,,,,,,,,,,106,002,2021_Sep_30_1441,joplin1,2021.2.3,59.78607035076569,
,0 0 1 0 0 0 0 1 0 0,2,categoryB,j,genfile1.csv,1,,,,,,,,,0,1,1,0,0,30,30,14,,,,,,,,,,,,,,,,,,,,,,,,f,0,0.11427549994550645,,,,,,,,,,,,,,,,,,,,,,,106,002,2021_Sep_30_1441,joplin1,2021.2.3,59.78607035076569,
,0 0 1 0 1 1 0 1 0 0,4,categoryB,j,genfile1.csv,1,,,,,,,,,0,1,1,0,0,31,31,11,,,,,,,,,,,,,,,,,,,,,,,,f,0,0.011229999945499003,,,,,,,,,,,,,,,,,,,,,,,106,002,2021_Sep_30_1441,joplin1,2021.2.3,59.78607035076569,
,0 1 0 1 0 0 0 0 1 0,3,categoryB,j,genfile1.csv,0,,,,,,,,,0,1,1,0,0,32,32,43,,,,,,,,,,,,,,,,,,,,,,,,j,1,0.2718654579948634,,,,,,,,,,,,,,,,,,,,,,,106,002,2021_Sep_30_1441,joplin1,2021.2.3,59.78607035076569,
,1 0 1 0 1 1 1 0 1 1,7,categoryA,f,genfile1.csv,0,,,,,,,,,0,1,1,0,0,33,33,29,,,,,,,,,,,,,,,,,,,,,,,,j,0,0.6659994999645278,,,,,,,,,,,,,,,,,,,,,,,106,002,2021_Sep_30_1441,joplin1,2021.2.3,59.78607035076569,
,1 0 0 0 0 0 0 0 0 1,2,categoryB,j,genfile1.csv,1,,,,,,,,,0,1,1,0,0,34,34,9,,,,,,,,,,,,,,,,,,,,,,,,j,1,0.49326266697607934,,,,,,,,,,,,,,,,,,,,,,,106,002,2021_Sep_30_1441,joplin1,2021.2.3,59.78607035076569,
,1 1 1 0 1 1 1 1 1 1,9,categoryA,f,genfile1.csv,0,,,,,,,,,0,1,1,0,0,35,35,17,,,,,,,,,,,,,,,,,,,,,,,,f,1,0.22286875010468066,,,,,,,,,,,,,,,,,,,,,,,106,002,2021_Sep_30_1441,joplin1,2021.2.3,59.78607035076569,
,0 0 1 1 1 1 1 1 0 0,6,categoryA,f,genfile1.csv,1,,,,,,,,,0,1,1,0,0,36,36,8,,,,,,,,,,,,,,,,,,,,,,,,f,1,0.11593695904593915,,,,,,,,,,,,,,,,,,,,,,,106,002,2021_Sep_30_1441,joplin1,2021.2.3,59.78607035076569,
,0 0 0 1 1 1 1 0 0 0,4,categoryB,j,genfile1.csv,1,,,,,,,,,0,1,1,0,0,37,37,12,,,,,,,,,,,,,,,,,,,,,,,,j,1,0.31721437501255423,,,,,,,,,,,,,,,,,,,,,,,106,002,2021_Sep_30_1441,joplin1,2021.2.3,59.78607035076569,
,1 1 1 1 0 0 1 1 1 1,8,categoryA,f,genfile1.csv,0,,,,,,,,,0,1,1,0,0,38,38,25,,,,,,,,,,,,,,,,,,,,,,,,f,1,0.36612929205875844,,,,,,,,,,,,,,,,,,,,,,,106,002,2021_Sep_30_1441,joplin1,2021.2.3,59.78607035076569,
,1 1 1 0 1 1 0 1 1 1,8,categoryA,f,genfile1.csv,1,,,,,,,,,0,1,1,0,0,39,39,6,,,,,,,,,,,,,,,,,,,,,,,,f,1,0.20632987492717803,,,,,,,,,,,,,,,,,,,,,,,106,002,2021_Sep_30_1441,joplin1,2021.2.3,59.78607035076569,
,1 1 0 0 0 0 0 0 0 0,2,categoryB,j,genfile1.csv,0,,,,,,,,,0,1,1,0,0,40,40,46,,,,,,,,,,,,,,,,,,,,,,,,j,1,0.1638080000411719,,,,,,,,,,,,,,,,,,,,,,,106,002,2021_Sep_30_1441,joplin1,2021.2.3,59.78607035076569,
,1 1 0 1 0 0 1 0 1 1,6,categoryA,f,genfile1.csv,1,,,,,,,,,0,1,1,0,0,41,41,4,,,,,,,,,,,,,,,,,,,,,,,,j,0,0.06735054205637425,,,,,,,,,,,,,,,,,,,,,,,106,002,2021_Sep_30_1441,joplin1,2021.2.3,59.78607035076569,
,0 1 1 1 1 1 1 0 1 0,7,categoryA,f,genfile1.csv,0,,,,,,,,,0,1,1,0,0,42,42,28,,,,,,,,,,,,,,,,,,,,,,,,j,0,0.06982591596897691,,,,,,,,,,,,,,,,,,,,,,,106,002,2021_Sep_30_1441,joplin1,2021.2.3,59.78607035076569,
,1 0 0 1 1 1 1 1 1 1,8,categoryA,f,genfile1.csv,0,,,,,,,,,0,1,1,0,0,43,43,24,,,,,,,,,,,,,,,,,,,,,,,,f,1,0.16563745902385563,,,,,,,,,,,,,,,,,,,,,,,106,002,2021_Sep_30_1441,joplin1,2021.2.3,59.78607035076569,
,0 0 0 0 1 0 0 0 0 0,1,categoryB,j,genfile1.csv,0,,,,,,,,,0,1,1,0,0,44,44,55,,,,,,,,,,,,,,,,,,,,,,,,j,1,0.4498462920309976,,,,,,,,,,,,,,,,,,,,,,,106,002,2021_Sep_30_1441,joplin1,2021.2.3,59.78607035076569,
,1 1 1 1 1 1 1 1 1 1,10,categoryA,f,genfile1.csv,0,,,,,,,,,0,1,1,0,0,45,45,1,,,,,,,,,,,,,,,,,,,,,,,,f,1,0.17381345795001835,,,,,,,,,,,,,,,,,,,,,,,106,002,2021_Sep_30_1441,joplin1,2021.2.3,59.78607035076569,
,1 0 1 1 1 0 0 1 1 1,7,categoryA,f,genfile1.csv,0,,,,,,,,,0,1,1,0,0,46,46,30,,,,,,,,,,,,,,,,,,,,,,,,f,1,0.3071145419962704,,,,,,,,,,,,,,,,,,,,,,,106,002,2021_Sep_30_1441,joplin1,2021.2.3,59.78607035076569,
,1 1 1 1 0 1 1 1 1 0,8,categoryA,f,genfile1.csv,0,,,,,,,,,0,1,1,0,0,47,47,21,,,,,,,,,,,,,,,,,,,,,,,,f,1,0.5524865420302376,,,,,,,,,,,,,,,,,,,,,,,106,002,2021_Sep_30_1441,joplin1,2021.2.3,59.78607035076569,
,0 1 0 0 0 0 0 0 1 0,2,categoryB,j,genfile1.csv,1,,,,,,,,,0,1,1,0,0,48,48,10,,,,,,,,,,,,,,,,,,,,,,,,j,1,0.31945854099467397,,,,,,,,,,,,,,,,,,,,,,,106,002,2021_Sep_30_1441,joplin1,2021.2.3,59.78607035076569,
,1 1 1 1 1 0 1 0 1 0,7,categoryA,f,genfile1.csv,0,,,,,,,,,0,1,1,0,0,49,49,27,,,,,,,,,,,,,,,,,,,,,,,,j,0,0.8698364580050111,,,,,,,,,,,,,,,,,,,,,,,106,002,2021_Sep_30_1441,joplin1,2021.2.3,59.78607035076569,
,0 1 1 1 0 1 1 1 0 1,7,categoryA,f,genfile1.csv,0,,,,,,,,,0,1,1,0,0,50,50,26,,,,,,,,,,,,,,,,,,,,,,,,f,1,0.40666600002441555,,,,,,,,,,,,,,,,,,,,,,,106,002,2021_Sep_30_1441,joplin1,2021.2.3,59.78607035076569,
,0 1 1 0 0 0 0 0 1 0,3,categoryB,j,genfile1.csv,0,,,,,,,,,0,1,1,0,0,51,51,42,,,,,,,,,,,,,,,,,,,,,,,,j,1,0.11459258291870356,,,,,,,,,,,,,,,,,,,,,,,106,002,2021_Sep_30_1441,joplin1,2021.2.3,59.78607035076569,
,1 0 0 0 1 0 1 0 1 0,4,categoryB,j,genfile1.csv,0,,,,,,,,,0,1,1,0,0,52,52,39,,,,,,,,,,,,,,,,,,,,,,,,j,1,0.10602412500884384,,,,,,,,,,,,,,,,,,,,,,,106,002,2021_Sep_30_1441,joplin1,2021.2.3,59.78607035076569,
,0 0 0 0 0 0 0 0 1 0,1,categoryB,j,genfile1.csv,0,,,,,,,,,0,1,1,0,0,53,53,51,,,,,,,,,,,,,,,,,,,,,,,,j,1,0.17176420893520117,,,,,,,,,,,,,,,,,,,,,,,106,002,2021_Sep_30_1441,joplin1,2021.2.3,59.78607035076569,
,1 1 1 1 1 1 1 1 1 0,9,categoryA,f,genfile1.csv,0,,,,,,,,,0,1,1,0,0,54,54,20,,,,,,,,,,,,,,,,,,,,,,,,f,1,0.22497716697398573,,,,,,,,,,,,,,,,,,,,,,,106,002,2021_Sep_30_1441,joplin1,2021.2.3,59.78607035076569,
,0 0 0 1 0 0 1 0 0 0,2,categoryB,j,genfile1.csv,1,,,,,,,,,0,1,1,0,0,55,55,13,,,,,,,,,,,,,,,,,,,,,,,,j,1,0.10950504208449274,,,,,,,,,,,,,,,,,,,,,,,106,002,2021_Sep_30_1441,joplin1,2021.2.3,59.78607035076569,
,,,,,genfile1.csv,,,,,,,,,,0,1,1,0,,,,,,,,,,,,,,,,,,space,1.2325350410537794,,,,,,,,,,,,,,,,,,,,,,,,,,,,,,,,,,106,002,2021_Sep_30_1441,joplin1,2021.2.3,59.78607035076569,
,,,,,,,,,,,,,,,,,,,,,,,,,,,,,,,,,,,,,,,,,,,,,,,,,space,14.511026124935597,,,,,,,,,,,,,,,,,,,,,106,002,2021_Sep_30_1441,joplin1,2021.2.3,59.78607035076569,
,,,,,,,,,,,,,,,,,,,,,,,,,,,,,,,,,,,,,,,,,,,,,,,,,,,return,23.9617440829752,,,,,,,,,,,,,,,,,,,106,002,2021_Sep_30_1441,joplin1,2021.2.3,59.78607035076569,
,,,,,,,,,,,,,,,,,,,,,,,,,,,,,,,,,,,,,,,,,,,,,,,,,,,,,0.7,radio,0.3,Are you Hispanic/Latino?,0,None,None,no,4.127551708021201,,,,,,,,,,106,002,2021_Sep_30_1441,joplin1,2021.2.3,59.78607035076569,
,,,,,,,,,,,,,,,,,,,,,,,,,,,,,,,,,,,,,,,,,,,,,,,,,,,,,0.7,radio,0.3,Are you an American Indian or Alaska Native?,1,None,None,no,8.564026791951619,,,,,,,,,,106,002,2021_Sep_30_1441,joplin1,2021.2.3,59.78607035076569,
,,,,,,,,,,,,,,,,,,,,,,,,,,,,,,,,,,,,,,,,,,,,,,,,,,,,,0.7,radio,0.3,Are you Asian?,2,None,None,yes,15.101571167004295,,,,,,,,,,106,002,2021_Sep_30_1441,joplin1,2021.2.3,59.78607035076569,
,,,,,,,,,,,,,,,,,,,,,,,,,,,,,,,,,,,,,,,,,,,,,,,,,,,,,0.7,radio,0.3,Are you Black or African American?,3,None,None,no,19.48143899999559,,,,,,,,,,106,002,2021_Sep_30_1441,joplin1,2021.2.3,59.78607035076569,
,,,,,,,,,,,,,,,,,,,,,,,,,,,,,,,,,,,,,,,,,,,,,,,,,,,,,0.7,radio,0.3,Are you a Native Hawaiian or other Pacific Islander?,4,None,None,no,10.902626624912955,,,,,,,,,,106,002,2021_Sep_30_1441,joplin1,2021.2.3,59.78607035076569,
,,,,,,,,,,,,,,,,,,,,,,,,,,,,,,,,,,,,,,,,,,,,,,,,,,,,,0.7,radio,0.3,Are you White?,5,None,None,no,13.840520124998875,,,,,,,,,,106,002,2021_Sep_30_1441,joplin1,2021.2.3,59.78607035076569,
,,,,,,,,,,,,,,,,,,,,,,,,,,,,,,,,,,,,,,,,,,,,,,,,,,,,,0.85,radio,0.3,"Do you have any history of neurological issues such as stroke, head injury or a neurodegenerative disorder?",6,None,None,no,6.608459583017975,,,,,,,,,,106,002,2021_Sep_30_1441,joplin1,2021.2.3,59.78607035076569,
,,,,,,,,,,,,,,,,,,,,,,,,,,,,,,,,,,,,,,,,,,,,,,,,,,,,,,,,,,,,,,return,29.340758541948162,,,,,,,,106,002,2021_Sep_30_1441,joplin1,2021.2.3,59.78607035076569,
,,,,,,,,,,,,,,,,,,,,,,,,,,,,,,,,,,,,,,,,,,,,,,,,,,,,,,,,,,,,,,,,return,5.015410166000947,,,,,,106,002,2021_Sep_30_1441,joplin1,2021.2.3,59.78607035076569,
,,,,,,,,,,,,,,,,,,,,,,,,,,,,,,,,,,,,,,,,,,,,,,,,,,,,,,,,,,,,,,,,,,female,19,n,3.128428249969147,,106,002,2021_Sep_30_1441,joplin1,2021.2.3,59.78607035076569,
,,,,,,,,,,,,,,,,,,,,,,,,,,,,,,,,,,,,,,,,,,,,,,,,,,,,,,,,,,,,,,,,,,,,,,8,,,,,,,
