train_set,stim_id,sums_feat,category,correct_key,gen_file,train_item,train_runs.thisRepN,train_runs.thisTrialN,train_runs.thisN,train_runs.thisIndex,train_trials.thisRepN,train_trials.thisTrialN,train_trials.thisN,train_trials.thisIndex,test_runs.thisRepN,test_runs.thisTrialN,test_runs.thisN,test_runs.thisIndex,test_trials.thisRepN,test_trials.thisTrialN,test_trials.thisN,test_trials.thisIndex,welcome_key.keys,welcome_key.rt,welcome_key.started,welcome_key.stopped,train_inst1_key.keys,train_inst1_key.rt,train_inst2_key.keys,train_inst2_key.rt,train_begin_key.keys,train_begin_key.rt,train_key.keys,train_key.corr,train_key.rt,break_key.keys,break_key.rt,key_resp.keys,key_resp.rt,test_inst1_key.keys,test_inst1_key.rt,test_inst2_key.keys,test_inst2_key.rt,test_begin_key.keys,test_begin_key.rt,test_key.keys,test_key.corr,test_key.rt,test_end_key.keys,demo_inst1_key.keys,form.questionWidth,form.type,form.respWidth,form.itemText,form.index,form.font,form.markerColor,form.response,form.rt,form_key.keys,demo_inst2_key.keys,gender_string,age_string,demo4_key.keys,typedWord,participant,session,date,expName,psychopyVersion,frameRate,
,,,,,,,,,,,,,,,,,,,,,,,space,27.42132204095833,72.08633879199624,None,,,,,,,,,,,,,,,,,,,,,,,,,,,,,,,,,,,,,,,,106,001,2021_Sep_28_1444,joplin1,2021.2.3,59.99088138643422,
,,,,,,,,,,,,,,,,,,,,,,,,,,,f,12.7638310000184,,,,,,,,,,,,,,,,,,,,,,,,,,,,,,,,,,,,,,106,001,2021_Sep_28_1444,joplin1,2021.2.3,59.99088138643422,
,,,,,,,,,,,,,,,,,,,,,,,,,,,,,space,11.052033250045497,,,,,,,,,,,,,,,,,,,,,,,,,,,,,,,,,,,,106,001,2021_Sep_28_1444,joplin1,2021.2.3,59.99088138643422,
,,,,,,,,,,,,,,,,,,,,,,,,,,,,,,,space,1.3933327079867013,,,,,,,,,,,,,,,,,,,,,,,,,,,,,,,,,,106,001,2021_Sep_28_1444,joplin1,2021.2.3,59.99088138643422,
_train_cond.csv,1 1 0 0 0 0 0 0 1 1,4,categoryB,j,,,0,0,0,2,0,0,0,13,,,,,,,,,,,,,,,,,,,None,0,,,,,,,,,,,,,,,,,,,,,,,,,,,,,,,,106,001,2021_Sep_28_1444,joplin1,2021.2.3,59.99088138643422,
_train_cond.csv,1 1 1 0 1 1 0 1 1 1,8,categoryA,f,,,0,0,0,2,0,1,1,4,,,,,,,,,,,,,,,,,,,j,0,0.6996567500173114,,,,,,,,,,,,,,,,,,,,,,,,,,,,,,,106,001,2021_Sep_28_1444,joplin1,2021.2.3,59.99088138643422,
_train_cond.csv,0 0 0 1 0 0 1 0 0 0,2,categoryB,j,,,0,0,0,2,0,2,2,11,,,,,,,,,,,,,,,,,,,f,0,0.55476216704119,,,,,,,,,,,,,,,,,,,,,,,,,,,,,,,106,001,2021_Sep_28_1444,joplin1,2021.2.3,59.99088138643422,
_train_cond.csv,0 0 1 1 1 1 1 1 0 0,6,categoryA,f,,,0,0,0,2,0,3,3,6,,,,,,,,,,,,,,,,,,,j,0,0.5845558329601772,,,,,,,,,,,,,,,,,,,,,,,,,,,,,,,106,001,2021_Sep_28_1444,joplin1,2021.2.3,59.99088138643422,
_train_cond.csv,0 1 1 1 1 1 1 1 1 0,8,categoryA,f,,,0,0,0,2,0,4,4,0,,,,,,,,,,,,,,,,,,,j,0,0.9288264170172624,,,,,,,,,,,,,,,,,,,,,,,,,,,,,,,106,001,2021_Sep_28_1444,joplin1,2021.2.3,59.99088138643422,
_train_cond.csv,1 0 1 1 1 1 1 1 0 1,8,categoryA,f,,,0,0,0,2,0,5,5,1,,,,,,,,,,,,,,,,,,,j,0,0.4788342909887433,,,,,,,,,,,,,,,,,,,,,,,,,,,,,,,106,001,2021_Sep_28_1444,joplin1,2021.2.3,59.99088138643422,
_train_cond.csv,1 1 0 1 0 0 1 0 1 1,6,categoryA,f,,,0,0,0,2,0,6,6,2,,,,,,,,,,,,,,,,,,,j,0,0.39170100004412234,,,,,,,,,,,,,,,,,,,,,,,,,,,,,,,106,001,2021_Sep_28_1444,joplin1,2021.2.3,59.99088138643422,
_train_cond.csv,0 0 0 1 1 1 1 0 0 0,4,categoryB,j,,,0,0,0,2,0,7,7,10,,,,,,,,,,,,,,,,,,,j,1,0.4112096249591559,,,,,,,,,,,,,,,,,,,,,,,,,,,,,,,106,001,2021_Sep_28_1444,joplin1,2021.2.3,59.99088138643422,
_train_cond.csv,1 0 0 0 0 0 0 0 0 1,2,categoryB,j,,,0,0,0,2,0,8,8,7,,,,,,,,,,,,,,,,,,,f,0,0.31065345800016075,,,,,,,,,,,,,,,,,,,,,,,,,,,,,,,106,001,2021_Sep_28_1444,joplin1,2021.2.3,59.99088138643422,
_train_cond.csv,0 0 1 0 0 0 0 1 0 0,2,categoryB,j,,,0,0,0,2,0,9,9,12,,,,,,,,,,,,,,,,,,,f,0,0.8697952080401592,,,,,,,,,,,,,,,,,,,,,,,,,,,,,,,106,001,2021_Sep_28_1444,joplin1,2021.2.3,59.99088138643422,
_train_cond.csv,0 1 0 0 0 0 0 0 1 0,2,categoryB,j,,,0,0,0,2,0,10,10,8,,,,,,,,,,,,,,,,,,,j,1,0.550844292039983,,,,,,,,,,,,,,,,,,,,,,,,,,,,,,,106,001,2021_Sep_28_1444,joplin1,2021.2.3,59.99088138643422,
_train_cond.csv,1 1 1 0 0 0 0 1 1 1,6,categoryA,f,,,0,0,0,2,0,11,11,3,,,,,,,,,,,,,,,,,,,j,0,0.3810271670226939,,,,,,,,,,,,,,,,,,,,,,,,,,,,,,,106,001,2021_Sep_28_1444,joplin1,2021.2.3,59.99088138643422,
_train_cond.csv,1 1 0 1 1 1 1 0 1 1,8,categoryA,f,,,0,0,0,2,0,12,12,5,,,,,,,,,,,,,,,,,,,f,1,0.8414244170417078,,,,,,,,,,,,,,,,,,,,,,,,,,,,,,,106,001,2021_Sep_28_1444,joplin1,2021.2.3,59.99088138643422,
_train_cond.csv,0 0 1 0 1 1 0 1 0 0,4,categoryB,j,,,0,0,0,2,0,13,13,9,,,,,,,,,,,,,,,,,,,j,1,0.466934957948979,,,,,,,,,,,,,,,,,,,,,,,,,,,,,,,106,001,2021_Sep_28_1444,joplin1,2021.2.3,59.99088138643422,
_train_cond.csv,1 1 1 0 0 0 0 1 1 1,6,categoryA,f,,,0,0,0,2,1,0,14,3,,,,,,,,,,,,,,,,,,,f,1,0.38752691698027775,,,,,,,,,,,,,,,,,,,,,,,,,,,,,,,106,001,2021_Sep_28_1444,joplin1,2021.2.3,59.99088138643422,
_train_cond.csv,1 1 1 0 1 1 0 1 1 1,8,categoryA,f,,,0,0,0,2,1,1,15,4,,,,,,,,,,,,,,,,,,,j,0,0.583792541990988,,,,,,,,,,,,,,,,,,,,,,,,,,,,,,,106,001,2021_Sep_28_1444,joplin1,2021.2.3,59.99088138643422,
_train_cond.csv,1 1 0 0 0 0 0 0 1 1,4,categoryB,j,,,0,0,0,2,1,2,16,13,,,,,,,,,,,,,,,,,,,f,0,0.4538461660267785,,,,,,,,,,,,,,,,,,,,,,,,,,,,,,,106,001,2021_Sep_28_1444,joplin1,2021.2.3,59.99088138643422,
_train_cond.csv,0 0 1 0 0 0 0 1 0 0,2,categoryB,j,,,0,0,0,2,1,3,17,12,,,,,,,,,,,,,,,,,,,f,0,1.6548545000259764,,,,,,,,,,,,,,,,,,,,,,,,,,,,,,,106,001,2021_Sep_28_1444,joplin1,2021.2.3,59.99088138643422,
_train_cond.csv,0 0 0 1 0 0 1 0 0 0,2,categoryB,j,,,0,0,0,2,1,4,18,11,,,,,,,,,,,,,,,,,,,j,1,0.4820457500172779,,,,,,,,,,,,,,,,,,,,,,,,,,,,,,,106,001,2021_Sep_28_1444,joplin1,2021.2.3,59.99088138643422,
_train_cond.csv,0 1 1 1 1 1 1 1 1 0,8,categoryA,f,,,0,0,0,2,1,5,19,0,,,,,,,,,,,,,,,,,,,j,0,0.3802753330091946,,,,,,,,,,,,,,,,,,,,,,,,,,,,,,,106,001,2021_Sep_28_1444,joplin1,2021.2.3,59.99088138643422,
_train_cond.csv,0 0 1 0 1 1 0 1 0 0,4,categoryB,j,,,0,0,0,2,1,6,20,9,,,,,,,,,,,,,,,,,,,f,0,0.47381516703171656,,,,,,,,,,,,,,,,,,,,,,,,,,,,,,,106,001,2021_Sep_28_1444,joplin1,2021.2.3,59.99088138643422,
_train_cond.csv,0 0 1 1 1 1 1 1 0 0,6,categoryA,f,,,0,0,0,2,1,7,21,6,,,,,,,,,,,,,,,,,,,j,0,2.1648619589977898,,,,,,,,,,,,,,,,,,,,,,,,,,,,,,,106,001,2021_Sep_28_1444,joplin1,2021.2.3,59.99088138643422,
_train_cond.csv,1 1 0 1 1 1 1 0 1 1,8,categoryA,f,,,0,0,0,2,1,8,22,5,,,,,,,,,,,,,,,,,,,f,1,1.7162334169843234,,,,,,,,,,,,,,,,,,,,,,,,,,,,,,,106,001,2021_Sep_28_1444,joplin1,2021.2.3,59.99088138643422,
_train_cond.csv,1 0 1 1 1 1 1 1 0 1,8,categoryA,f,,,0,0,0,2,1,9,23,1,,,,,,,,,,,,,,,,,,,j,0,0.8754205419681966,,,,,,,,,,,,,,,,,,,,,,,,,,,,,,,106,001,2021_Sep_28_1444,joplin1,2021.2.3,59.99088138643422,
_train_cond.csv,1 1 0 1 0 0 1 0 1 1,6,categoryA,f,,,0,0,0,2,1,10,24,2,,,,,,,,,,,,,,,,,,,j,0,0.957688708032947,,,,,,,,,,,,,,,,,,,,,,,,,,,,,,,106,001,2021_Sep_28_1444,joplin1,2021.2.3,59.99088138643422,
_train_cond.csv,0 0 0 1 1 1 1 0 0 0,4,categoryB,j,,,0,0,0,2,1,11,25,10,,,,,,,,,,,,,,,,,,,j,1,0.5016414999845438,,,,,,,,,,,,,,,,,,,,,,,,,,,,,,,106,001,2021_Sep_28_1444,joplin1,2021.2.3,59.99088138643422,
_train_cond.csv,0 1 0 0 0 0 0 0 1 0,2,categoryB,j,,,0,0,0,2,1,12,26,8,,,,,,,,,,,,,,,,,,,f,0,0.9589314159820788,,,,,,,,,,,,,,,,,,,,,,,,,,,,,,,106,001,2021_Sep_28_1444,joplin1,2021.2.3,59.99088138643422,
_train_cond.csv,1 0 0 0 0 0 0 0 0 1,2,categoryB,j,,,0,0,0,2,1,13,27,7,,,,,,,,,,,,,,,,,,,j,1,0.7741128340130672,,,,,,,,,,,,,,,,,,,,,,,,,,,,,,,106,001,2021_Sep_28_1444,joplin1,2021.2.3,59.99088138643422,
_train_cond.csv,1 0 0 0 0 0 0 0 0 1,2,categoryB,j,,,0,0,0,2,2,0,28,7,,,,,,,,,,,,,,,,,,,j,1,0.37253462499938905,,,,,,,,,,,,,,,,,,,,,,,,,,,,,,,106,001,2021_Sep_28_1444,joplin1,2021.2.3,59.99088138643422,
_train_cond.csv,0 1 1 1 1 1 1 1 1 0,8,categoryA,f,,,0,0,0,2,2,1,29,0,,,,,,,,,,,,,,,,,,,f,1,0.47497504099737853,,,,,,,,,,,,,,,,,,,,,,,,,,,,,,,106,001,2021_Sep_28_1444,joplin1,2021.2.3,59.99088138643422,
_train_cond.csv,0 0 1 0 0 0 0 1 0 0,2,categoryB,j,,,0,0,0,2,2,2,30,12,,,,,,,,,,,,,,,,,,,j,1,0.36598929099272937,,,,,,,,,,,,,,,,,,,,,,,,,,,,,,,106,001,2021_Sep_28_1444,joplin1,2021.2.3,59.99088138643422,
_train_cond.csv,0 1 0 0 0 0 0 0 1 0,2,categoryB,j,,,0,0,0,2,2,3,31,8,,,,,,,,,,,,,,,,,,,f,0,0.3495589999947697,,,,,,,,,,,,,,,,,,,,,,,,,,,,,,,106,001,2021_Sep_28_1444,joplin1,2021.2.3,59.99088138643422,
_train_cond.csv,1 1 1 0 1 1 0 1 1 1,8,categoryA,f,,,0,0,0,2,2,4,32,4,,,,,,,,,,,,,,,,,,,f,1,0.9975444170413539,,,,,,,,,,,,,,,,,,,,,,,,,,,,,,,106,001,2021_Sep_28_1444,joplin1,2021.2.3,59.99088138643422,
_train_cond.csv,1 1 0 0 0 0 0 0 1 1,4,categoryB,j,,,0,0,0,2,2,5,33,13,,,,,,,,,,,,,,,,,,,f,0,0.6572751660132781,,,,,,,,,,,,,,,,,,,,,,,,,,,,,,,106,001,2021_Sep_28_1444,joplin1,2021.2.3,59.99088138643422,
_train_cond.csv,1 0 1 1 1 1 1 1 0 1,8,categoryA,f,,,0,0,0,2,2,6,34,1,,,,,,,,,,,,,,,,,,,j,0,0.3408804580103606,,,,,,,,,,,,,,,,,,,,,,,,,,,,,,,106,001,2021_Sep_28_1444,joplin1,2021.2.3,59.99088138643422,
_train_cond.csv,0 0 0 1 1 1 1 0 0 0,4,categoryB,j,,,0,0,0,2,2,7,35,10,,,,,,,,,,,,,,,,,,,j,1,0.8206046249833889,,,,,,,,,,,,,,,,,,,,,,,,,,,,,,,106,001,2021_Sep_28_1444,joplin1,2021.2.3,59.99088138643422,
_train_cond.csv,1 1 0 1 1 1 1 0 1 1,8,categoryA,f,,,0,0,0,2,2,8,36,5,,,,,,,,,,,,,,,,,,,f,1,1.1931182909756899,,,,,,,,,,,,,,,,,,,,,,,,,,,,,,,106,001,2021_Sep_28_1444,joplin1,2021.2.3,59.99088138643422,
_train_cond.csv,0 0 1 1 1 1 1 1 0 0,6,categoryA,f,,,0,0,0,2,2,9,37,6,,,,,,,,,,,,,,,,,,,j,0,0.6696312499698251,,,,,,,,,,,,,,,,,,,,,,,,,,,,,,,106,001,2021_Sep_28_1444,joplin1,2021.2.3,59.99088138643422,
_train_cond.csv,1 1 0 1 0 0 1 0 1 1,6,categoryA,f,,,0,0,0,2,2,10,38,2,,,,,,,,,,,,,,,,,,,j,0,1.7201567920274101,,,,,,,,,,,,,,,,,,,,,,,,,,,,,,,106,001,2021_Sep_28_1444,joplin1,2021.2.3,59.99088138643422,
_train_cond.csv,0 0 1 0 1 1 0 1 0 0,4,categoryB,j,,,0,0,0,2,2,11,39,9,,,,,,,,,,,,,,,,,,,j,1,0.6735960000078194,,,,,,,,,,,,,,,,,,,,,,,,,,,,,,,106,001,2021_Sep_28_1444,joplin1,2021.2.3,59.99088138643422,
_train_cond.csv,1 1 1 0 0 0 0 1 1 1,6,categoryA,f,,,0,0,0,2,2,12,40,3,,,,,,,,,,,,,,,,,,,f,1,0.5235324170207605,,,,,,,,,,,,,,,,,,,,,,,,,,,,,,,106,001,2021_Sep_28_1444,joplin1,2021.2.3,59.99088138643422,
_train_cond.csv,0 0 0 1 0 0 1 0 0 0,2,categoryB,j,,,0,0,0,2,2,13,41,11,,,,,,,,,,,,,,,,,,,j,1,0.4440851249964908,,,,,,,,,,,,,,,,,,,,,,,,,,,,,,,106,001,2021_Sep_28_1444,joplin1,2021.2.3,59.99088138643422,
_train_cond.csv,,,,,,,0,0,0,2,,,,,,,,,,,,,,,,,,,,,,,,,,space,11.096295541035943,,,,,,,,,,,,,,,,,,,,,,,,,,,,,106,001,2021_Sep_28_1444,joplin1,2021.2.3,59.99088138643422,
_train_cond.csv,0 1 1 1 1 1 1 1 1 0,8,categoryA,f,,,0,1,1,5,0,0,0,0,,,,,,,,,,,,,,,,,,,f,1,1.9286584159708582,,,,,,,,,,,,,,,,,,,,,,,,,,,,,,,106,001,2021_Sep_28_1444,joplin1,2021.2.3,59.99088138643422,
_train_cond.csv,1 1 1 0 0 0 0 1 1 1,6,categoryA,f,,,0,1,1,5,0,1,1,3,,,,,,,,,,,,,,,,,,,f,1,0.001672334037721157,,,,,,,,,,,,,,,,,,,,,,,,,,,,,,,106,001,2021_Sep_28_1444,joplin1,2021.2.3,59.99088138643422,
_train_cond.csv,1 0 0 0 0 0 0 0 0 1,2,categoryB,j,,,0,1,1,5,0,2,2,7,,,,,,,,,,,,,,,,,,,j,1,0.44002604100387543,,,,,,,,,,,,,,,,,,,,,,,,,,,,,,,106,001,2021_Sep_28_1444,joplin1,2021.2.3,59.99088138643422,
_train_cond.csv,0 0 0 1 0 0 1 0 0 0,2,categoryB,j,,,0,1,1,5,0,3,3,11,,,,,,,,,,,,,,,,,,,j,1,0.2660707500181161,,,,,,,,,,,,,,,,,,,,,,,,,,,,,,,106,001,2021_Sep_28_1444,joplin1,2021.2.3,59.99088138643422,
_train_cond.csv,0 0 0 1 1 1 1 0 0 0,4,categoryB,j,,,0,1,1,5,0,4,4,10,,,,,,,,,,,,,,,,,,,j,1,0.42224337498191744,,,,,,,,,,,,,,,,,,,,,,,,,,,,,,,106,001,2021_Sep_28_1444,joplin1,2021.2.3,59.99088138643422,
_train_cond.csv,0 0 1 0 0 0 0 1 0 0,2,categoryB,j,,,0,1,1,5,0,5,5,12,,,,,,,,,,,,,,,,,,,j,1,0.3304239999852143,,,,,,,,,,,,,,,,,,,,,,,,,,,,,,,106,001,2021_Sep_28_1444,joplin1,2021.2.3,59.99088138643422,
_train_cond.csv,1 1 0 1 0 0 1 0 1 1,6,categoryA,f,,,0,1,1,5,0,6,6,2,,,,,,,,,,,,,,,,,,,f,1,0.22920329199405387,,,,,,,,,,,,,,,,,,,,,,,,,,,,,,,106,001,2021_Sep_28_1444,joplin1,2021.2.3,59.99088138643422,
_train_cond.csv,1 0 1 1 1 1 1 1 0 1,8,categoryA,f,,,0,1,1,5,0,7,7,1,,,,,,,,,,,,,,,,,,,j,0,0.4329671250307001,,,,,,,,,,,,,,,,,,,,,,,,,,,,,,,106,001,2021_Sep_28_1444,joplin1,2021.2.3,59.99088138643422,
_train_cond.csv,1 1 1 0 1 1 0 1 1 1,8,categoryA,f,,,0,1,1,5,0,8,8,4,,,,,,,,,,,,,,,,,,,j,0,0.2614435839932412,,,,,,,,,,,,,,,,,,,,,,,,,,,,,,,106,001,2021_Sep_28_1444,joplin1,2021.2.3,59.99088138643422,
_train_cond.csv,1 1 0 0 0 0 0 0 1 1,4,categoryB,j,,,0,1,1,5,0,9,9,13,,,,,,,,,,,,,,,,,,,f,0,0.7212757910019718,,,,,,,,,,,,,,,,,,,,,,,,,,,,,,,106,001,2021_Sep_28_1444,joplin1,2021.2.3,59.99088138643422,
_train_cond.csv,0 0 1 1 1 1 1 1 0 0,6,categoryA,f,,,0,1,1,5,0,10,10,6,,,,,,,,,,,,,,,,,,,j,0,0.9772673330153339,,,,,,,,,,,,,,,,,,,,,,,,,,,,,,,106,001,2021_Sep_28_1444,joplin1,2021.2.3,59.99088138643422,
_train_cond.csv,1 1 0 1 1 1 1 0 1 1,8,categoryA,f,,,0,1,1,5,0,11,11,5,,,,,,,,,,,,,,,,,,,j,0,0.9610078749828972,,,,,,,,,,,,,,,,,,,,,,,,,,,,,,,106,001,2021_Sep_28_1444,joplin1,2021.2.3,59.99088138643422,
_train_cond.csv,0 0 1 0 1 1 0 1 0 0,4,categoryB,j,,,0,1,1,5,0,12,12,9,,,,,,,,,,,,,,,,,,,j,1,1.8803004589863122,,,,,,,,,,,,,,,,,,,,,,,,,,,,,,,106,001,2021_Sep_28_1444,joplin1,2021.2.3,59.99088138643422,
_train_cond.csv,0 1 0 0 0 0 0 0 1 0,2,categoryB,j,,,0,1,1,5,0,13,13,8,,,,,,,,,,,,,,,,,,,f,0,0.6428307919995859,,,,,,,,,,,,,,,,,,,,,,,,,,,,,,,106,001,2021_Sep_28_1444,joplin1,2021.2.3,59.99088138643422,
_train_cond.csv,1 1 1 0 1 1 0 1 1 1,8,categoryA,f,,,0,1,1,5,1,0,14,4,,,,,,,,,,,,,,,,,,,f,1,0.4784582919673994,,,,,,,,,,,,,,,,,,,,,,,,,,,,,,,106,001,2021_Sep_28_1444,joplin1,2021.2.3,59.99088138643422,
_train_cond.csv,1 1 0 1 1 1 1 0 1 1,8,categoryA,f,,,0,1,1,5,1,1,15,5,,,,,,,,,,,,,,,,,,,j,0,0.33811700000660494,,,,,,,,,,,,,,,,,,,,,,,,,,,,,,,106,001,2021_Sep_28_1444,joplin1,2021.2.3,59.99088138643422,
_train_cond.csv,1 1 0 1 0 0 1 0 1 1,6,categoryA,f,,,0,1,1,5,1,2,16,2,,,,,,,,,,,,,,,,,,,j,0,0.6500173329841346,,,,,,,,,,,,,,,,,,,,,,,,,,,,,,,106,001,2021_Sep_28_1444,joplin1,2021.2.3,59.99088138643422,
_train_cond.csv,0 0 1 0 1 1 0 1 0 0,4,categoryB,j,,,0,1,1,5,1,3,17,9,,,,,,,,,,,,,,,,,,,f,0,1.9897595410002396,,,,,,,,,,,,,,,,,,,,,,,,,,,,,,,106,001,2021_Sep_28_1444,joplin1,2021.2.3,59.99088138643422,
_train_cond.csv,1 1 1 0 0 0 0 1 1 1,6,categoryA,f,,,0,1,1,5,1,4,18,3,,,,,,,,,,,,,,,,,,,f,1,1.3396858329651877,,,,,,,,,,,,,,,,,,,,,,,,,,,,,,,106,001,2021_Sep_28_1444,joplin1,2021.2.3,59.99088138643422,
_train_cond.csv,0 0 1 0 0 0 0 1 0 0,2,categoryB,j,,,0,1,1,5,1,5,19,12,,,,,,,,,,,,,,,,,,,f,0,0.8352489169919863,,,,,,,,,,,,,,,,,,,,,,,,,,,,,,,106,001,2021_Sep_28_1444,joplin1,2021.2.3,59.99088138643422,
_train_cond.csv,0 0 1 1 1 1 1 1 0 0,6,categoryA,f,,,0,1,1,5,1,6,20,6,,,,,,,,,,,,,,,,,,,j,0,0.703412750037387,,,,,,,,,,,,,,,,,,,,,,,,,,,,,,,106,001,2021_Sep_28_1444,joplin1,2021.2.3,59.99088138643422,
_train_cond.csv,0 0 0 1 0 0 1 0 0 0,2,categoryB,j,,,0,1,1,5,1,7,21,11,,,,,,,,,,,,,,,,,,,f,0,0.9373891249997541,,,,,,,,,,,,,,,,,,,,,,,,,,,,,,,106,001,2021_Sep_28_1444,joplin1,2021.2.3,59.99088138643422,
_train_cond.csv,1 0 0 0 0 0 0 0 0 1,2,categoryB,j,,,0,1,1,5,1,8,22,7,,,,,,,,,,,,,,,,,,,j,1,0.15095362497959286,,,,,,,,,,,,,,,,,,,,,,,,,,,,,,,106,001,2021_Sep_28_1444,joplin1,2021.2.3,59.99088138643422,
_train_cond.csv,0 0 0 1 1 1 1 0 0 0,4,categoryB,j,,,0,1,1,5,1,9,23,10,,,,,,,,,,,,,,,,,,,f,0,1.1584632910089567,,,,,,,,,,,,,,,,,,,,,,,,,,,,,,,106,001,2021_Sep_28_1444,joplin1,2021.2.3,59.99088138643422,
_train_cond.csv,1 0 1 1 1 1 1 1 0 1,8,categoryA,f,,,0,1,1,5,1,10,24,1,,,,,,,,,,,,,,,,,,,j,0,1.021464291960001,,,,,,,,,,,,,,,,,,,,,,,,,,,,,,,106,001,2021_Sep_28_1444,joplin1,2021.2.3,59.99088138643422,
_train_cond.csv,1 1 0 0 0 0 0 0 1 1,4,categoryB,j,,,0,1,1,5,1,11,25,13,,,,,,,,,,,,,,,,,,,f,0,0.9942382919834927,,,,,,,,,,,,,,,,,,,,,,,,,,,,,,,106,001,2021_Sep_28_1444,joplin1,2021.2.3,59.99088138643422,
_train_cond.csv,0 1 1 1 1 1 1 1 1 0,8,categoryA,f,,,0,1,1,5,1,12,26,0,,,,,,,,,,,,,,,,,,,j,0,0.3518029999686405,,,,,,,,,,,,,,,,,,,,,,,,,,,,,,,106,001,2021_Sep_28_1444,joplin1,2021.2.3,59.99088138643422,
_train_cond.csv,0 1 0 0 0 0 0 0 1 0,2,categoryB,j,,,0,1,1,5,1,13,27,8,,,,,,,,,,,,,,,,,,,f,0,1.456027708016336,,,,,,,,,,,,,,,,,,,,,,,,,,,,,,,106,001,2021_Sep_28_1444,joplin1,2021.2.3,59.99088138643422,
_train_cond.csv,1 1 0 0 0 0 0 0 1 1,4,categoryB,j,,,0,1,1,5,2,0,28,13,,,,,,,,,,,,,,,,,,,j,1,1.594983582966961,,,,,,,,,,,,,,,,,,,,,,,,,,,,,,,106,001,2021_Sep_28_1444,joplin1,2021.2.3,59.99088138643422,
_train_cond.csv,0 1 0 0 0 0 0 0 1 0,2,categoryB,j,,,0,1,1,5,2,1,29,8,,,,,,,,,,,,,,,,,,,f,0,0.5296112499781884,,,,,,,,,,,,,,,,,,,,,,,,,,,,,,,106,001,2021_Sep_28_1444,joplin1,2021.2.3,59.99088138643422,
_train_cond.csv,1 1 0 1 0 0 1 0 1 1,6,categoryA,f,,,0,1,1,5,2,2,30,2,,,,,,,,,,,,,,,,,,,j,0,1.2254880829714239,,,,,,,,,,,,,,,,,,,,,,,,,,,,,,,106,001,2021_Sep_28_1444,joplin1,2021.2.3,59.99088138643422,
_train_cond.csv,1 0 1 1 1 1 1 1 0 1,8,categoryA,f,,,0,1,1,5,2,3,31,1,,,,,,,,,,,,,,,,,,,j,0,0.5980272499728017,,,,,,,,,,,,,,,,,,,,,,,,,,,,,,,106,001,2021_Sep_28_1444,joplin1,2021.2.3,59.99088138643422,
_train_cond.csv,1 1 0 1 1 1 1 0 1 1,8,categoryA,f,,,0,1,1,5,2,4,32,5,,,,,,,,,,,,,,,,,,,f,1,0.7641854159883223,,,,,,,,,,,,,,,,,,,,,,,,,,,,,,,106,001,2021_Sep_28_1444,joplin1,2021.2.3,59.99088138643422,
_train_cond.csv,1 0 0 0 0 0 0 0 0 1,2,categoryB,j,,,0,1,1,5,2,5,33,7,,,,,,,,,,,,,,,,,,,f,0,0.5146650000242516,,,,,,,,,,,,,,,,,,,,,,,,,,,,,,,106,001,2021_Sep_28_1444,joplin1,2021.2.3,59.99088138643422,
_train_cond.csv,0 0 1 1 1 1 1 1 0 0,6,categoryA,f,,,0,1,1,5,2,6,34,6,,,,,,,,,,,,,,,,,,,f,1,1.028313040966168,,,,,,,,,,,,,,,,,,,,,,,,,,,,,,,106,001,2021_Sep_28_1444,joplin1,2021.2.3,59.99088138643422,
_train_cond.csv,1 1 1 0 1 1 0 1 1 1,8,categoryA,f,,,0,1,1,5,2,7,35,4,,,,,,,,,,,,,,,,,,,j,0,0.4084068340016529,,,,,,,,,,,,,,,,,,,,,,,,,,,,,,,106,001,2021_Sep_28_1444,joplin1,2021.2.3,59.99088138643422,
_train_cond.csv,0 1 1 1 1 1 1 1 1 0,8,categoryA,f,,,0,1,1,5,2,8,36,0,,,,,,,,,,,,,,,,,,,f,1,0.9583183749928139,,,,,,,,,,,,,,,,,,,,,,,,,,,,,,,106,001,2021_Sep_28_1444,joplin1,2021.2.3,59.99088138643422,
_train_cond.csv,0 0 0 1 0 0 1 0 0 0,2,categoryB,j,,,0,1,1,5,2,9,37,11,,,,,,,,,,,,,,,,,,,j,1,0.46900212502805516,,,,,,,,,,,,,,,,,,,,,,,,,,,,,,,106,001,2021_Sep_28_1444,joplin1,2021.2.3,59.99088138643422,
_train_cond.csv,1 1 1 0 0 0 0 1 1 1,6,categoryA,f,,,0,1,1,5,2,10,38,3,,,,,,,,,,,,,,,,,,,j,0,1.1683395419968292,,,,,,,,,,,,,,,,,,,,,,,,,,,,,,,106,001,2021_Sep_28_1444,joplin1,2021.2.3,59.99088138643422,
_train_cond.csv,0 0 1 0 0 0 0 1 0 0,2,categoryB,j,,,0,1,1,5,2,11,39,12,,,,,,,,,,,,,,,,,,,j,1,0.40755750000244007,,,,,,,,,,,,,,,,,,,,,,,,,,,,,,,106,001,2021_Sep_28_1444,joplin1,2021.2.3,59.99088138643422,
_train_cond.csv,0 0 0 1 1 1 1 0 0 0,4,categoryB,j,,,0,1,1,5,2,12,40,10,,,,,,,,,,,,,,,,,,,j,1,0.4605151670402847,,,,,,,,,,,,,,,,,,,,,,,,,,,,,,,106,001,2021_Sep_28_1444,joplin1,2021.2.3,59.99088138643422,
_train_cond.csv,0 0 1 0 1 1 0 1 0 0,4,categoryB,j,,,0,1,1,5,2,13,41,9,,,,,,,,,,,,,,,,,,,j,1,0.3519213749677874,,,,,,,,,,,,,,,,,,,,,,,,,,,,,,,106,001,2021_Sep_28_1444,joplin1,2021.2.3,59.99088138643422,
_train_cond.csv,,,,,,,0,1,1,5,,,,,,,,,,,,,,,,,,,,,,,,,,space,2.7277830420061946,,,,,,,,,,,,,,,,,,,,,,,,,,,,,106,001,2021_Sep_28_1444,joplin1,2021.2.3,59.99088138643422,
_train_cond.csv,0 0 1 0 0 0 0 1 0 0,2,categoryB,j,,,0,2,2,0,0,0,0,12,,,,,,,,,,,,,,,,,,,j,1,0.7116417500074022,,,,,,,,,,,,,,,,,,,,,,,,,,,,,,,106,001,2021_Sep_28_1444,joplin1,2021.2.3,59.99088138643422,
_train_cond.csv,1 0 1 1 1 1 1 1 0 1,8,categoryA,f,,,0,2,2,0,0,1,1,1,,,,,,,,,,,,,,,,,,,j,0,0.38424712501000613,,,,,,,,,,,,,,,,,,,,,,,,,,,,,,,106,001,2021_Sep_28_1444,joplin1,2021.2.3,59.99088138643422,
_train_cond.csv,0 0 0 1 1 1 1 0 0 0,4,categoryB,j,,,0,2,2,0,0,2,2,10,,,,,,,,,,,,,,,,,,,j,1,0.3100084589677863,,,,,,,,,,,,,,,,,,,,,,,,,,,,,,,106,001,2021_Sep_28_1444,joplin1,2021.2.3,59.99088138643422,
_train_cond.csv,0 1 1 1 1 1 1 1 1 0,8,categoryA,f,,,0,2,2,0,0,3,3,0,,,,,,,,,,,,,,,,,,,j,0,0.863435290986672,,,,,,,,,,,,,,,,,,,,,,,,,,,,,,,106,001,2021_Sep_28_1444,joplin1,2021.2.3,59.99088138643422,
_train_cond.csv,1 1 0 1 0 0 1 0 1 1,6,categoryA,f,,,0,2,2,0,0,4,4,2,,,,,,,,,,,,,,,,,,,f,1,1.2981962920166552,,,,,,,,,,,,,,,,,,,,,,,,,,,,,,,106,001,2021_Sep_28_1444,joplin1,2021.2.3,59.99088138643422,
_train_cond.csv,1 0 0 0 0 0 0 0 0 1,2,categoryB,j,,,0,2,2,0,0,5,5,7,,,,,,,,,,,,,,,,,,,f,0,0.7877753330394626,,,,,,,,,,,,,,,,,,,,,,,,,,,,,,,106,001,2021_Sep_28_1444,joplin1,2021.2.3,59.99088138643422,
_train_cond.csv,0 0 1 0 1 1 0 1 0 0,4,categoryB,j,,,0,2,2,0,0,6,6,9,,,,,,,,,,,,,,,,,,,f,0,0.3776128749595955,,,,,,,,,,,,,,,,,,,,,,,,,,,,,,,106,001,2021_Sep_28_1444,joplin1,2021.2.3,59.99088138643422,
_train_cond.csv,0 1 0 0 0 0 0 0 1 0,2,categoryB,j,,,0,2,2,0,0,7,7,8,,,,,,,,,,,,,,,,,,,f,0,0.9377626659697853,,,,,,,,,,,,,,,,,,,,,,,,,,,,,,,106,001,2021_Sep_28_1444,joplin1,2021.2.3,59.99088138643422,
_train_cond.csv,1 1 0 0 0 0 0 0 1 1,4,categoryB,j,,,0,2,2,0,0,8,8,13,,,,,,,,,,,,,,,,,,,j,1,0.265404625039082,,,,,,,,,,,,,,,,,,,,,,,,,,,,,,,106,001,2021_Sep_28_1444,joplin1,2021.2.3,59.99088138643422,
_train_cond.csv,0 0 1 1 1 1 1 1 0 0,6,categoryA,f,,,0,2,2,0,0,9,9,6,,,,,,,,,,,,,,,,,,,j,0,0.38675508298911154,,,,,,,,,,,,,,,,,,,,,,,,,,,,,,,106,001,2021_Sep_28_1444,joplin1,2021.2.3,59.99088138643422,
_train_cond.csv,1 1 1 0 1 1 0 1 1 1,8,categoryA,f,,,0,2,2,0,0,10,10,4,,,,,,,,,,,,,,,,,,,f,1,0.9036134579801001,,,,,,,,,,,,,,,,,,,,,,,,,,,,,,,106,001,2021_Sep_28_1444,joplin1,2021.2.3,59.99088138643422,
_train_cond.csv,1 1 1 0 0 0 0 1 1 1,6,categoryA,f,,,0,2,2,0,0,11,11,3,,,,,,,,,,,,,,,,,,,f,1,0.44816891703521833,,,,,,,,,,,,,,,,,,,,,,,,,,,,,,,106,001,2021_Sep_28_1444,joplin1,2021.2.3,59.99088138643422,
_train_cond.csv,1 1 0 1 1 1 1 0 1 1,8,categoryA,f,,,0,2,2,0,0,12,12,5,,,,,,,,,,,,,,,,,,,f,1,0.3744886670028791,,,,,,,,,,,,,,,,,,,,,,,,,,,,,,,106,001,2021_Sep_28_1444,joplin1,2021.2.3,59.99088138643422,
_train_cond.csv,0 0 0 1 0 0 1 0 0 0,2,categoryB,j,,,0,2,2,0,0,13,13,11,,,,,,,,,,,,,,,,,,,f,0,1.1059888750314713,,,,,,,,,,,,,,,,,,,,,,,,,,,,,,,106,001,2021_Sep_28_1444,joplin1,2021.2.3,59.99088138643422,
_train_cond.csv,0 0 1 0 1 1 0 1 0 0,4,categoryB,j,,,0,2,2,0,1,0,14,9,,,,,,,,,,,,,,,,,,,j,1,0.2910049579804763,,,,,,,,,,,,,,,,,,,,,,,,,,,,,,,106,001,2021_Sep_28_1444,joplin1,2021.2.3,59.99088138643422,
_train_cond.csv,1 1 0 1 0 0 1 0 1 1,6,categoryA,f,,,0,2,2,0,1,1,15,2,,,,,,,,,,,,,,,,,,,f,1,0.5405545419780537,,,,,,,,,,,,,,,,,,,,,,,,,,,,,,,106,001,2021_Sep_28_1444,joplin1,2021.2.3,59.99088138643422,
_train_cond.csv,0 1 1 1 1 1 1 1 1 0,8,categoryA,f,,,0,2,2,0,1,2,16,0,,,,,,,,,,,,,,,,,,,j,0,0.9322422500117682,,,,,,,,,,,,,,,,,,,,,,,,,,,,,,,106,001,2021_Sep_28_1444,joplin1,2021.2.3,59.99088138643422,
_train_cond.csv,0 1 0 0 0 0 0 0 1 0,2,categoryB,j,,,0,2,2,0,1,3,17,8,,,,,,,,,,,,,,,,,,,f,0,0.4287560419761576,,,,,,,,,,,,,,,,,,,,,,,,,,,,,,,106,001,2021_Sep_28_1444,joplin1,2021.2.3,59.99088138643422,
_train_cond.csv,1 0 0 0 0 0 0 0 0 1,2,categoryB,j,,,0,2,2,0,1,4,18,7,,,,,,,,,,,,,,,,,,,f,0,1.257417750020977,,,,,,,,,,,,,,,,,,,,,,,,,,,,,,,106,001,2021_Sep_28_1444,joplin1,2021.2.3,59.99088138643422,
_train_cond.csv,1 0 1 1 1 1 1 1 0 1,8,categoryA,f,,,0,2,2,0,1,5,19,1,,,,,,,,,,,,,,,,,,,j,0,0.5326060419902205,,,,,,,,,,,,,,,,,,,,,,,,,,,,,,,106,001,2021_Sep_28_1444,joplin1,2021.2.3,59.99088138643422,
_train_cond.csv,1 1 1 0 0 0 0 1 1 1,6,categoryA,f,,,0,2,2,0,1,6,20,3,,,,,,,,,,,,,,,,,,,f,1,0.21295358397765085,,,,,,,,,,,,,,,,,,,,,,,,,,,,,,,106,001,2021_Sep_28_1444,joplin1,2021.2.3,59.99088138643422,
_train_cond.csv,0 0 0 1 1 1 1 0 0 0,4,categoryB,j,,,0,2,2,0,1,7,21,10,,,,,,,,,,,,,,,,,,,j,1,0.6824999590171501,,,,,,,,,,,,,,,,,,,,,,,,,,,,,,,106,001,2021_Sep_28_1444,joplin1,2021.2.3,59.99088138643422,
_train_cond.csv,0 0 1 0 0 0 0 1 0 0,2,categoryB,j,,,0,2,2,0,1,8,22,12,,,,,,,,,,,,,,,,,,,j,1,0.643516207986977,,,,,,,,,,,,,,,,,,,,,,,,,,,,,,,106,001,2021_Sep_28_1444,joplin1,2021.2.3,59.99088138643422,
_train_cond.csv,0 0 1 1 1 1 1 1 0 0,6,categoryA,f,,,0,2,2,0,1,9,23,6,,,,,,,,,,,,,,,,,,,f,1,0.6158922920003533,,,,,,,,,,,,,,,,,,,,,,,,,,,,,,,106,001,2021_Sep_28_1444,joplin1,2021.2.3,59.99088138643422,
_train_cond.csv,0 0 0 1 0 0 1 0 0 0,2,categoryB,j,,,0,2,2,0,1,10,24,11,,,,,,,,,,,,,,,,,,,j,1,0.31715229200199246,,,,,,,,,,,,,,,,,,,,,,,,,,,,,,,106,001,2021_Sep_28_1444,joplin1,2021.2.3,59.99088138643422,
_train_cond.csv,1 1 0 1 1 1 1 0 1 1,8,categoryA,f,,,0,2,2,0,1,11,25,5,,,,,,,,,,,,,,,,,,,j,0,0.09169366699643433,,,,,,,,,,,,,,,,,,,,,,,,,,,,,,,106,001,2021_Sep_28_1444,joplin1,2021.2.3,59.99088138643422,
_train_cond.csv,1 1 0 0 0 0 0 0 1 1,4,categoryB,j,,,0,2,2,0,1,12,26,13,,,,,,,,,,,,,,,,,,,f,0,0.022113542014267296,,,,,,,,,,,,,,,,,,,,,,,,,,,,,,,106,001,2021_Sep_28_1444,joplin1,2021.2.3,59.99088138643422,
_train_cond.csv,1 1 1 0 1 1 0 1 1 1,8,categoryA,f,,,0,2,2,0,1,13,27,4,,,,,,,,,,,,,,,,,,,f,1,0.16361599997617304,,,,,,,,,,,,,,,,,,,,,,,,,,,,,,,106,001,2021_Sep_28_1444,joplin1,2021.2.3,59.99088138643422,
_train_cond.csv,0 0 0 1 1 1 1 0 0 0,4,categoryB,j,,,0,2,2,0,2,0,28,10,,,,,,,,,,,,,,,,,,,j,1,0.3294694159994833,,,,,,,,,,,,,,,,,,,,,,,,,,,,,,,106,001,2021_Sep_28_1444,joplin1,2021.2.3,59.99088138643422,
_train_cond.csv,1 1 1 0 0 0 0 1 1 1,6,categoryA,f,,,0,2,2,0,2,1,29,3,,,,,,,,,,,,,,,,,,,f,1,0.34536891704192385,,,,,,,,,,,,,,,,,,,,,,,,,,,,,,,106,001,2021_Sep_28_1444,joplin1,2021.2.3,59.99088138643422,
_train_cond.csv,1 0 1 1 1 1 1 1 0 1,8,categoryA,f,,,0,2,2,0,2,2,30,1,,,,,,,,,,,,,,,,,,,f,1,0.049262375046964735,,,,,,,,,,,,,,,,,,,,,,,,,,,,,,,106,001,2021_Sep_28_1444,joplin1,2021.2.3,59.99088138643422,
_train_cond.csv,0 0 1 0 1 1 0 1 0 0,4,categoryB,j,,,0,2,2,0,2,3,31,9,,,,,,,,,,,,,,,,,,,f,0,0.33303641696693376,,,,,,,,,,,,,,,,,,,,,,,,,,,,,,,106,001,2021_Sep_28_1444,joplin1,2021.2.3,59.99088138643422,
_train_cond.csv,0 0 1 0 0 0 0 1 0 0,2,categoryB,j,,,0,2,2,0,2,4,32,12,,,,,,,,,,,,,,,,,,,j,1,0.34162183303851634,,,,,,,,,,,,,,,,,,,,,,,,,,,,,,,106,001,2021_Sep_28_1444,joplin1,2021.2.3,59.99088138643422,
_train_cond.csv,0 1 0 0 0 0 0 0 1 0,2,categoryB,j,,,0,2,2,0,2,5,33,8,,,,,,,,,,,,,,,,,,,f,0,1.197376083000563,,,,,,,,,,,,,,,,,,,,,,,,,,,,,,,106,001,2021_Sep_28_1444,joplin1,2021.2.3,59.99088138643422,
_train_cond.csv,1 1 0 1 0 0 1 0 1 1,6,categoryA,f,,,0,2,2,0,2,6,34,2,,,,,,,,,,,,,,,,,,,j,0,0.0991198749979958,,,,,,,,,,,,,,,,,,,,,,,,,,,,,,,106,001,2021_Sep_28_1444,joplin1,2021.2.3,59.99088138643422,
_train_cond.csv,0 1 1 1 1 1 1 1 1 0,8,categoryA,f,,,0,2,2,0,2,7,35,0,,,,,,,,,,,,,,,,,,,f,1,0.41255233297124505,,,,,,,,,,,,,,,,,,,,,,,,,,,,,,,106,001,2021_Sep_28_1444,joplin1,2021.2.3,59.99088138643422,
_train_cond.csv,1 1 0 0 0 0 0 0 1 1,4,categoryB,j,,,0,2,2,0,2,8,36,13,,,,,,,,,,,,,,,,,,,j,1,0.7843156669987366,,,,,,,,,,,,,,,,,,,,,,,,,,,,,,,106,001,2021_Sep_28_1444,joplin1,2021.2.3,59.99088138643422,
_train_cond.csv,0 0 0 1 0 0 1 0 0 0,2,categoryB,j,,,0,2,2,0,2,9,37,11,,,,,,,,,,,,,,,,,,,f,0,0.6702812499715947,,,,,,,,,,,,,,,,,,,,,,,,,,,,,,,106,001,2021_Sep_28_1444,joplin1,2021.2.3,59.99088138643422,
_train_cond.csv,1 0 0 0 0 0 0 0 0 1,2,categoryB,j,,,0,2,2,0,2,10,38,7,,,,,,,,,,,,,,,,,,,f,0,0.2881999170058407,,,,,,,,,,,,,,,,,,,,,,,,,,,,,,,106,001,2021_Sep_28_1444,joplin1,2021.2.3,59.99088138643422,
_train_cond.csv,0 0 1 1 1 1 1 1 0 0,6,categoryA,f,,,0,2,2,0,2,11,39,6,,,,,,,,,,,,,,,,,,,j,0,0.3547214160207659,,,,,,,,,,,,,,,,,,,,,,,,,,,,,,,106,001,2021_Sep_28_1444,joplin1,2021.2.3,59.99088138643422,
_train_cond.csv,1 1 0 1 1 1 1 0 1 1,8,categoryA,f,,,0,2,2,0,2,12,40,5,,,,,,,,,,,,,,,,,,,f,1,0.5622272089822218,,,,,,,,,,,,,,,,,,,,,,,,,,,,,,,106,001,2021_Sep_28_1444,joplin1,2021.2.3,59.99088138643422,
_train_cond.csv,1 1 1 0 1 1 0 1 1 1,8,categoryA,f,,,0,2,2,0,2,13,41,4,,,,,,,,,,,,,,,,,,,None,0,,,,,,,,,,,,,,,,,,,,,,,,,,,,,,,,106,001,2021_Sep_28_1444,joplin1,2021.2.3,59.99088138643422,
_train_cond.csv,,,,,,,0,2,2,0,,,,,,,,,,,,,,,,,,,,,,,,,,space,21.479896874981932,,,,,,,,,,,,,,,,,,,,,,,,,,,,,106,001,2021_Sep_28_1444,joplin1,2021.2.3,59.99088138643422,
_train_cond.csv,0 0 0 1 1 1 1 0 0 0,4,categoryB,j,,,0,3,3,4,0,0,0,10,,,,,,,,,,,,,,,,,,,f,0,0.5609566659550183,,,,,,,,,,,,,,,,,,,,,,,,,,,,,,,106,001,2021_Sep_28_1444,joplin1,2021.2.3,59.99088138643422,
_train_cond.csv,0 0 0 1 0 0 1 0 0 0,2,categoryB,j,,,0,3,3,4,0,1,1,11,,,,,,,,,,,,,,,,,,,f,0,0.8241704169777222,,,,,,,,,,,,,,,,,,,,,,,,,,,,,,,106,001,2021_Sep_28_1444,joplin1,2021.2.3,59.99088138643422,
_train_cond.csv,0 0 1 0 0 0 0 1 0 0,2,categoryB,j,,,0,3,3,4,0,2,2,12,,,,,,,,,,,,,,,,,,,f,0,0.36542766698403284,,,,,,,,,,,,,,,,,,,,,,,,,,,,,,,106,001,2021_Sep_28_1444,joplin1,2021.2.3,59.99088138643422,
_train_cond.csv,1 1 0 0 0 0 0 0 1 1,4,categoryB,j,,,0,3,3,4,0,3,3,13,,,,,,,,,,,,,,,,,,,j,1,0.30952858296222985,,,,,,,,,,,,,,,,,,,,,,,,,,,,,,,106,001,2021_Sep_28_1444,joplin1,2021.2.3,59.99088138643422,
_train_cond.csv,0 1 1 1 1 1 1 1 1 0,8,categoryA,f,,,0,3,3,4,0,4,4,0,,,,,,,,,,,,,,,,,,,f,1,0.5179252500529401,,,,,,,,,,,,,,,,,,,,,,,,,,,,,,,106,001,2021_Sep_28_1444,joplin1,2021.2.3,59.99088138643422,
_train_cond.csv,1 1 1 0 1 1 0 1 1 1,8,categoryA,f,,,0,3,3,4,0,5,5,4,,,,,,,,,,,,,,,,,,,j,0,0.5755430000135675,,,,,,,,,,,,,,,,,,,,,,,,,,,,,,,106,001,2021_Sep_28_1444,joplin1,2021.2.3,59.99088138643422,
_train_cond.csv,1 1 0 1 0 0 1 0 1 1,6,categoryA,f,,,0,3,3,4,0,6,6,2,,,,,,,,,,,,,,,,,,,j,0,0.3895031249849126,,,,,,,,,,,,,,,,,,,,,,,,,,,,,,,106,001,2021_Sep_28_1444,joplin1,2021.2.3,59.99088138643422,
_train_cond.csv,1 0 0 0 0 0 0 0 0 1,2,categoryB,j,,,0,3,3,4,0,7,7,7,,,,,,,,,,,,,,,,,,,f,0,0.2994413750129752,,,,,,,,,,,,,,,,,,,,,,,,,,,,,,,106,001,2021_Sep_28_1444,joplin1,2021.2.3,59.99088138643422,
_train_cond.csv,0 0 1 1 1 1 1 1 0 0,6,categoryA,f,,,0,3,3,4,0,8,8,6,,,,,,,,,,,,,,,,,,,j,0,0.13351304200477898,,,,,,,,,,,,,,,,,,,,,,,,,,,,,,,106,001,2021_Sep_28_1444,joplin1,2021.2.3,59.99088138643422,
_train_cond.csv,1 1 1 0 0 0 0 1 1 1,6,categoryA,f,,,0,3,3,4,0,9,9,3,,,,,,,,,,,,,,,,,,,j,0,1.2691273330128752,,,,,,,,,,,,,,,,,,,,,,,,,,,,,,,106,001,2021_Sep_28_1444,joplin1,2021.2.3,59.99088138643422,
_train_cond.csv,1 1 0 1 1 1 1 0 1 1,8,categoryA,f,,,0,3,3,4,0,10,10,5,,,,,,,,,,,,,,,,,,,j,0,0.5123899159952998,,,,,,,,,,,,,,,,,,,,,,,,,,,,,,,106,001,2021_Sep_28_1444,joplin1,2021.2.3,59.99088138643422,
_train_cond.csv,0 1 0 0 0 0 0 0 1 0,2,categoryB,j,,,0,3,3,4,0,11,11,8,,,,,,,,,,,,,,,,,,,f,0,0.4824896660284139,,,,,,,,,,,,,,,,,,,,,,,,,,,,,,,106,001,2021_Sep_28_1444,joplin1,2021.2.3,59.99088138643422,
_train_cond.csv,1 0 1 1 1 1 1 1 0 1,8,categoryA,f,,,0,3,3,4,0,12,12,1,,,,,,,,,,,,,,,,,,,f,1,0.7145987499970943,,,,,,,,,,,,,,,,,,,,,,,,,,,,,,,106,001,2021_Sep_28_1444,joplin1,2021.2.3,59.99088138643422,
_train_cond.csv,0 0 1 0 1 1 0 1 0 0,4,categoryB,j,,,0,3,3,4,0,13,13,9,,,,,,,,,,,,,,,,,,,f,0,0.22045283298939466,,,,,,,,,,,,,,,,,,,,,,,,,,,,,,,106,001,2021_Sep_28_1444,joplin1,2021.2.3,59.99088138643422,
_train_cond.csv,0 0 0 1 1 1 1 0 0 0,4,categoryB,j,,,0,3,3,4,1,0,14,10,,,,,,,,,,,,,,,,,,,f,0,0.6256284579867497,,,,,,,,,,,,,,,,,,,,,,,,,,,,,,,106,001,2021_Sep_28_1444,joplin1,2021.2.3,59.99088138643422,
_train_cond.csv,1 1 1 0 0 0 0 1 1 1,6,categoryA,f,,,0,3,3,4,1,1,15,3,,,,,,,,,,,,,,,,,,,j,0,0.13556066702585667,,,,,,,,,,,,,,,,,,,,,,,,,,,,,,,106,001,2021_Sep_28_1444,joplin1,2021.2.3,59.99088138643422,
_train_cond.csv,1 0 1 1 1 1 1 1 0 1,8,categoryA,f,,,0,3,3,4,1,2,16,1,,,,,,,,,,,,,,,,,,,f,1,0.5108040829654783,,,,,,,,,,,,,,,,,,,,,,,,,,,,,,,106,001,2021_Sep_28_1444,joplin1,2021.2.3,59.99088138643422,
_train_cond.csv,1 1 0 1 0 0 1 0 1 1,6,categoryA,f,,,0,3,3,4,1,3,17,2,,,,,,,,,,,,,,,,,,,j,0,1.5423755830270238,,,,,,,,,,,,,,,,,,,,,,,,,,,,,,,106,001,2021_Sep_28_1444,joplin1,2021.2.3,59.99088138643422,
_train_cond.csv,1 1 1 0 1 1 0 1 1 1,8,categoryA,f,,,0,3,3,4,1,4,18,4,,,,,,,,,,,,,,,,,,,f,1,0.3344507080037147,,,,,,,,,,,,,,,,,,,,,,,,,,,,,,,106,001,2021_Sep_28_1444,joplin1,2021.2.3,59.99088138643422,
_train_cond.csv,1 1 0 1 1 1 1 0 1 1,8,categoryA,f,,,0,3,3,4,1,5,19,5,,,,,,,,,,,,,,,,,,,f,1,0.3659964160178788,,,,,,,,,,,,,,,,,,,,,,,,,,,,,,,106,001,2021_Sep_28_1444,joplin1,2021.2.3,59.99088138643422,
_train_cond.csv,0 1 0 0 0 0 0 0 1 0,2,categoryB,j,,,0,3,3,4,1,6,20,8,,,,,,,,,,,,,,,,,,,j,1,0.31772541598184034,,,,,,,,,,,,,,,,,,,,,,,,,,,,,,,106,001,2021_Sep_28_1444,joplin1,2021.2.3,59.99088138643422,
_train_cond.csv,1 1 0 0 0 0 0 0 1 1,4,categoryB,j,,,0,3,3,4,1,7,21,13,,,,,,,,,,,,,,,,,,,j,1,0.4220145840081386,,,,,,,,,,,,,,,,,,,,,,,,,,,,,,,106,001,2021_Sep_28_1444,joplin1,2021.2.3,59.99088138643422,
_train_cond.csv,0 0 0 1 0 0 1 0 0 0,2,categoryB,j,,,0,3,3,4,1,8,22,11,,,,,,,,,,,,,,,,,,,f,0,0.7150047920295037,,,,,,,,,,,,,,,,,,,,,,,,,,,,,,,106,001,2021_Sep_28_1444,joplin1,2021.2.3,59.99088138643422,
_train_cond.csv,0 0 1 0 1 1 0 1 0 0,4,categoryB,j,,,0,3,3,4,1,9,23,9,,,,,,,,,,,,,,,,,,,f,0,0.3649235409684479,,,,,,,,,,,,,,,,,,,,,,,,,,,,,,,106,001,2021_Sep_28_1444,joplin1,2021.2.3,59.99088138643422,
_train_cond.csv,0 0 1 1 1 1 1 1 0 0,6,categoryA,f,,,0,3,3,4,1,10,24,6,,,,,,,,,,,,,,,,,,,j,0,0.796399625018239,,,,,,,,,,,,,,,,,,,,,,,,,,,,,,,106,001,2021_Sep_28_1444,joplin1,2021.2.3,59.99088138643422,
_train_cond.csv,0 0 1 0 0 0 0 1 0 0,2,categoryB,j,,,0,3,3,4,1,11,25,12,,,,,,,,,,,,,,,,,,,f,0,0.3463908339617774,,,,,,,,,,,,,,,,,,,,,,,,,,,,,,,106,001,2021_Sep_28_1444,joplin1,2021.2.3,59.99088138643422,
_train_cond.csv,1 0 0 0 0 0 0 0 0 1,2,categoryB,j,,,0,3,3,4,1,12,26,7,,,,,,,,,,,,,,,,,,,j,1,0.41969420900568366,,,,,,,,,,,,,,,,,,,,,,,,,,,,,,,106,001,2021_Sep_28_1444,joplin1,2021.2.3,59.99088138643422,
_train_cond.csv,0 1 1 1 1 1 1 1 1 0,8,categoryA,f,,,0,3,3,4,1,13,27,0,,,,,,,,,,,,,,,,,,,f,1,0.3356361669721082,,,,,,,,,,,,,,,,,,,,,,,,,,,,,,,106,001,2021_Sep_28_1444,joplin1,2021.2.3,59.99088138643422,
_train_cond.csv,1 0 1 1 1 1 1 1 0 1,8,categoryA,f,,,0,3,3,4,2,0,28,1,,,,,,,,,,,,,,,,,,,f,1,0.40746608295012265,,,,,,,,,,,,,,,,,,,,,,,,,,,,,,,106,001,2021_Sep_28_1444,joplin1,2021.2.3,59.99088138643422,
_train_cond.csv,0 1 0 0 0 0 0 0 1 0,2,categoryB,j,,,0,3,3,4,2,1,29,8,,,,,,,,,,,,,,,,,,,j,1,0.3500580829568207,,,,,,,,,,,,,,,,,,,,,,,,,,,,,,,106,001,2021_Sep_28_1444,joplin1,2021.2.3,59.99088138643422,
_train_cond.csv,0 0 0 1 1 1 1 0 0 0,4,categoryB,j,,,0,3,3,4,2,2,30,10,,,,,,,,,,,,,,,,,,,f,0,0.34946487500565127,,,,,,,,,,,,,,,,,,,,,,,,,,,,,,,106,001,2021_Sep_28_1444,joplin1,2021.2.3,59.99088138643422,
_train_cond.csv,0 0 1 0 1 1 0 1 0 0,4,categoryB,j,,,0,3,3,4,2,3,31,9,,,,,,,,,,,,,,,,,,,j,1,0.8375760419876315,,,,,,,,,,,,,,,,,,,,,,,,,,,,,,,106,001,2021_Sep_28_1444,joplin1,2021.2.3,59.99088138643422,
_train_cond.csv,1 1 0 0 0 0 0 0 1 1,4,categoryB,j,,,0,3,3,4,2,4,32,13,,,,,,,,,,,,,,,,,,,j,1,0.337499207991641,,,,,,,,,,,,,,,,,,,,,,,,,,,,,,,106,001,2021_Sep_28_1444,joplin1,2021.2.3,59.99088138643422,
_train_cond.csv,1 1 1 0 0 0 0 1 1 1,6,categoryA,f,,,0,3,3,4,2,5,33,3,,,,,,,,,,,,,,,,,,,j,0,0.40236887498758733,,,,,,,,,,,,,,,,,,,,,,,,,,,,,,,106,001,2021_Sep_28_1444,joplin1,2021.2.3,59.99088138643422,
_train_cond.csv,1 1 0 1 1 1 1 0 1 1,8,categoryA,f,,,0,3,3,4,2,6,34,5,,,,,,,,,,,,,,,,,,,f,1,0.5678205409785733,,,,,,,,,,,,,,,,,,,,,,,,,,,,,,,106,001,2021_Sep_28_1444,joplin1,2021.2.3,59.99088138643422,
_train_cond.csv,0 0 1 1 1 1 1 1 0 0,6,categoryA,f,,,0,3,3,4,2,7,35,6,,,,,,,,,,,,,,,,,,,f,1,0.5269747910206206,,,,,,,,,,,,,,,,,,,,,,,,,,,,,,,106,001,2021_Sep_28_1444,joplin1,2021.2.3,59.99088138643422,
_train_cond.csv,1 1 0 1 0 0 1 0 1 1,6,categoryA,f,,,0,3,3,4,2,8,36,2,,,,,,,,,,,,,,,,,,,f,1,0.5441827080212533,,,,,,,,,,,,,,,,,,,,,,,,,,,,,,,106,001,2021_Sep_28_1444,joplin1,2021.2.3,59.99088138643422,
_train_cond.csv,1 1 1 0 1 1 0 1 1 1,8,categoryA,f,,,0,3,3,4,2,9,37,4,,,,,,,,,,,,,,,,,,,j,0,0.9129631250398234,,,,,,,,,,,,,,,,,,,,,,,,,,,,,,,106,001,2021_Sep_28_1444,joplin1,2021.2.3,59.99088138643422,
_train_cond.csv,0 1 1 1 1 1 1 1 1 0,8,categoryA,f,,,0,3,3,4,2,10,38,0,,,,,,,,,,,,,,,,,,,f,1,1.129485208017286,,,,,,,,,,,,,,,,,,,,,,,,,,,,,,,106,001,2021_Sep_28_1444,joplin1,2021.2.3,59.99088138643422,
_train_cond.csv,1 0 0 0 0 0 0 0 0 1,2,categoryB,j,,,0,3,3,4,2,11,39,7,,,,,,,,,,,,,,,,,,,j,1,0.7453820829978213,,,,,,,,,,,,,,,,,,,,,,,,,,,,,,,106,001,2021_Sep_28_1444,joplin1,2021.2.3,59.99088138643422,
_train_cond.csv,0 0 1 0 0 0 0 1 0 0,2,categoryB,j,,,0,3,3,4,2,12,40,12,,,,,,,,,,,,,,,,,,,j,1,0.7047544589731842,,,,,,,,,,,,,,,,,,,,,,,,,,,,,,,106,001,2021_Sep_28_1444,joplin1,2021.2.3,59.99088138643422,
_train_cond.csv,0 0 0 1 0 0 1 0 0 0,2,categoryB,j,,,0,3,3,4,2,13,41,11,,,,,,,,,,,,,,,,,,,f,0,0.6667054999852553,,,,,,,,,,,,,,,,,,,,,,,,,,,,,,,106,001,2021_Sep_28_1444,joplin1,2021.2.3,59.99088138643422,
_train_cond.csv,,,,,,,0,3,3,4,,,,,,,,,,,,,,,,,,,,,,,,,,space,5.981715709029231,,,,,,,,,,,,,,,,,,,,,,,,,,,,,106,001,2021_Sep_28_1444,joplin1,2021.2.3,59.99088138643422,
_train_cond.csv,0 0 1 0 0 0 0 1 0 0,2,categoryB,j,,,0,4,4,7,0,0,0,12,,,,,,,,,,,,,,,,,,,f,0,1.5604643750120886,,,,,,,,,,,,,,,,,,,,,,,,,,,,,,,106,001,2021_Sep_28_1444,joplin1,2021.2.3,59.99088138643422,
_train_cond.csv,1 1 0 0 0 0 0 0 1 1,4,categoryB,j,,,0,4,4,7,0,1,1,13,,,,,,,,,,,,,,,,,,,j,1,0.24774037499446422,,,,,,,,,,,,,,,,,,,,,,,,,,,,,,,106,001,2021_Sep_28_1444,joplin1,2021.2.3,59.99088138643422,
_train_cond.csv,0 0 1 0 1 1 0 1 0 0,4,categoryB,j,,,0,4,4,7,0,2,2,9,,,,,,,,,,,,,,,,,,,j,1,0.29990250000264496,,,,,,,,,,,,,,,,,,,,,,,,,,,,,,,106,001,2021_Sep_28_1444,joplin1,2021.2.3,59.99088138643422,
_train_cond.csv,0 1 0 0 0 0 0 0 1 0,2,categoryB,j,,,0,4,4,7,0,3,3,8,,,,,,,,,,,,,,,,,,,j,1,0.5339022920234129,,,,,,,,,,,,,,,,,,,,,,,,,,,,,,,106,001,2021_Sep_28_1444,joplin1,2021.2.3,59.99088138643422,
_train_cond.csv,0 1 1 1 1 1 1 1 1 0,8,categoryA,f,,,0,4,4,7,0,4,4,0,,,,,,,,,,,,,,,,,,,f,1,0.8553185419877991,,,,,,,,,,,,,,,,,,,,,,,,,,,,,,,106,001,2021_Sep_28_1444,joplin1,2021.2.3,59.99088138643422,
_train_cond.csv,0 0 0 1 1 1 1 0 0 0,4,categoryB,j,,,0,4,4,7,0,5,5,10,,,,,,,,,,,,,,,,,,,j,1,0.5139142089756206,,,,,,,,,,,,,,,,,,,,,,,,,,,,,,,106,001,2021_Sep_28_1444,joplin1,2021.2.3,59.99088138643422,
_train_cond.csv,1 0 1 1 1 1 1 1 0 1,8,categoryA,f,,,0,4,4,7,0,6,6,1,,,,,,,,,,,,,,,,,,,f,1,1.5714840000146069,,,,,,,,,,,,,,,,,,,,,,,,,,,,,,,106,001,2021_Sep_28_1444,joplin1,2021.2.3,59.99088138643422,
_train_cond.csv,1 1 0 1 1 1 1 0 1 1,8,categoryA,f,,,0,4,4,7,0,7,7,5,,,,,,,,,,,,,,,,,,,f,1,0.8741967080277391,,,,,,,,,,,,,,,,,,,,,,,,,,,,,,,106,001,2021_Sep_28_1444,joplin1,2021.2.3,59.99088138643422,
_train_cond.csv,1 1 1 0 1 1 0 1 1 1,8,categoryA,f,,,0,4,4,7,0,8,8,4,,,,,,,,,,,,,,,,,,,j,0,0.36421629099640995,,,,,,,,,,,,,,,,,,,,,,,,,,,,,,,106,001,2021_Sep_28_1444,joplin1,2021.2.3,59.99088138643422,
_train_cond.csv,0 0 0 1 0 0 1 0 0 0,2,categoryB,j,,,0,4,4,7,0,9,9,11,,,,,,,,,,,,,,,,,,,f,0,1.13222654099809,,,,,,,,,,,,,,,,,,,,,,,,,,,,,,,106,001,2021_Sep_28_1444,joplin1,2021.2.3,59.99088138643422,
_train_cond.csv,1 0 0 0 0 0 0 0 0 1,2,categoryB,j,,,0,4,4,7,0,10,10,7,,,,,,,,,,,,,,,,,,,j,1,2.2209687079885043,,,,,,,,,,,,,,,,,,,,,,,,,,,,,,,106,001,2021_Sep_28_1444,joplin1,2021.2.3,59.99088138643422,
_train_cond.csv,0 0 1 1 1 1 1 1 0 0,6,categoryA,f,,,0,4,4,7,0,11,11,6,,,,,,,,,,,,,,,,,,,f,1,0.5135486669605598,,,,,,,,,,,,,,,,,,,,,,,,,,,,,,,106,001,2021_Sep_28_1444,joplin1,2021.2.3,59.99088138643422,
_train_cond.csv,1 1 1 0 0 0 0 1 1 1,6,categoryA,f,,,0,4,4,7,0,12,12,3,,,,,,,,,,,,,,,,,,,j,0,0.5468234170111828,,,,,,,,,,,,,,,,,,,,,,,,,,,,,,,106,001,2021_Sep_28_1444,joplin1,2021.2.3,59.99088138643422,
_train_cond.csv,1 1 0 1 0 0 1 0 1 1,6,categoryA,f,,,0,4,4,7,0,13,13,2,,,,,,,,,,,,,,,,,,,j,0,1.2666537499753758,,,,,,,,,,,,,,,,,,,,,,,,,,,,,,,106,001,2021_Sep_28_1444,joplin1,2021.2.3,59.99088138643422,
_train_cond.csv,1 1 0 0 0 0 0 0 1 1,4,categoryB,j,,,0,4,4,7,1,0,14,13,,,,,,,,,,,,,,,,,,,j,1,0.7986967499600723,,,,,,,,,,,,,,,,,,,,,,,,,,,,,,,106,001,2021_Sep_28_1444,joplin1,2021.2.3,59.99088138643422,
_train_cond.csv,0 0 1 0 0 0 0 1 0 0,2,categoryB,j,,,0,4,4,7,1,1,15,12,,,,,,,,,,,,,,,,,,,j,1,0.964512292004656,,,,,,,,,,,,,,,,,,,,,,,,,,,,,,,106,001,2021_Sep_28_1444,joplin1,2021.2.3,59.99088138643422,
_train_cond.csv,1 1 1 0 1 1 0 1 1 1,8,categoryA,f,,,0,4,4,7,1,2,16,4,,,,,,,,,,,,,,,,,,,j,0,1.1795185839873739,,,,,,,,,,,,,,,,,,,,,,,,,,,,,,,106,001,2021_Sep_28_1444,joplin1,2021.2.3,59.99088138643422,
_train_cond.csv,0 0 0 1 0 0 1 0 0 0,2,categoryB,j,,,0,4,4,7,1,3,17,11,,,,,,,,,,,,,,,,,,,f,0,0.5934375000069849,,,,,,,,,,,,,,,,,,,,,,,,,,,,,,,106,001,2021_Sep_28_1444,joplin1,2021.2.3,59.99088138643422,
_train_cond.csv,1 0 0 0 0 0 0 0 0 1,2,categoryB,j,,,0,4,4,7,1,4,18,7,,,,,,,,,,,,,,,,,,,j,1,0.7429302079835907,,,,,,,,,,,,,,,,,,,,,,,,,,,,,,,106,001,2021_Sep_28_1444,joplin1,2021.2.3,59.99088138643422,
_train_cond.csv,0 0 1 0 1 1 0 1 0 0,4,categoryB,j,,,0,4,4,7,1,5,19,9,,,,,,,,,,,,,,,,,,,j,1,0.5426812910009176,,,,,,,,,,,,,,,,,,,,,,,,,,,,,,,106,001,2021_Sep_28_1444,joplin1,2021.2.3,59.99088138643422,
_train_cond.csv,1 1 0 1 1 1 1 0 1 1,8,categoryA,f,,,0,4,4,7,1,6,20,5,,,,,,,,,,,,,,,,,,,f,1,0.607604791992344,,,,,,,,,,,,,,,,,,,,,,,,,,,,,,,106,001,2021_Sep_28_1444,joplin1,2021.2.3,59.99088138643422,
_train_cond.csv,0 0 0 1 1 1 1 0 0 0,4,categoryB,j,,,0,4,4,7,1,7,21,10,,,,,,,,,,,,,,,,,,,j,1,0.4922241249587387,,,,,,,,,,,,,,,,,,,,,,,,,,,,,,,106,001,2021_Sep_28_1444,joplin1,2021.2.3,59.99088138643422,
_train_cond.csv,0 1 0 0 0 0 0 0 1 0,2,categoryB,j,,,0,4,4,7,1,8,22,8,,,,,,,,,,,,,,,,,,,f,0,0.7974505419842899,,,,,,,,,,,,,,,,,,,,,,,,,,,,,,,106,001,2021_Sep_28_1444,joplin1,2021.2.3,59.99088138643422,
_train_cond.csv,1 1 0 1 0 0 1 0 1 1,6,categoryA,f,,,0,4,4,7,1,9,23,2,,,,,,,,,,,,,,,,,,,j,0,1.0179708750220016,,,,,,,,,,,,,,,,,,,,,,,,,,,,,,,106,001,2021_Sep_28_1444,joplin1,2021.2.3,59.99088138643422,
_train_cond.csv,0 0 1 1 1 1 1 1 0 0,6,categoryA,f,,,0,4,4,7,1,10,24,6,,,,,,,,,,,,,,,,,,,f,1,0.9417423339909874,,,,,,,,,,,,,,,,,,,,,,,,,,,,,,,106,001,2021_Sep_28_1444,joplin1,2021.2.3,59.99088138643422,
_train_cond.csv,1 0 1 1 1 1 1 1 0 1,8,categoryA,f,,,0,4,4,7,1,11,25,1,,,,,,,,,,,,,,,,,,,f,1,0.9975498330313712,,,,,,,,,,,,,,,,,,,,,,,,,,,,,,,106,001,2021_Sep_28_1444,joplin1,2021.2.3,59.99088138643422,
_train_cond.csv,1 1 1 0 0 0 0 1 1 1,6,categoryA,f,,,0,4,4,7,1,12,26,3,,,,,,,,,,,,,,,,,,,j,0,0.4037923750001937,,,,,,,,,,,,,,,,,,,,,,,,,,,,,,,106,001,2021_Sep_28_1444,joplin1,2021.2.3,59.99088138643422,
_train_cond.csv,0 1 1 1 1 1 1 1 1 0,8,categoryA,f,,,0,4,4,7,1,13,27,0,,,,,,,,,,,,,,,,,,,f,1,0.38473274995340034,,,,,,,,,,,,,,,,,,,,,,,,,,,,,,,106,001,2021_Sep_28_1444,joplin1,2021.2.3,59.99088138643422,
_train_cond.csv,1 1 0 1 0 0 1 0 1 1,6,categoryA,f,,,0,4,4,7,2,0,28,2,,,,,,,,,,,,,,,,,,,j,0,0.7673546670121141,,,,,,,,,,,,,,,,,,,,,,,,,,,,,,,106,001,2021_Sep_28_1444,joplin1,2021.2.3,59.99088138643422,
_train_cond.csv,1 1 0 1 1 1 1 0 1 1,8,categoryA,f,,,0,4,4,7,2,1,29,5,,,,,,,,,,,,,,,,,,,f,1,0.3829707090044394,,,,,,,,,,,,,,,,,,,,,,,,,,,,,,,106,001,2021_Sep_28_1444,joplin1,2021.2.3,59.99088138643422,
_train_cond.csv,1 1 1 0 1 1 0 1 1 1,8,categoryA,f,,,0,4,4,7,2,2,30,4,,,,,,,,,,,,,,,,,,,j,0,0.8452092920197174,,,,,,,,,,,,,,,,,,,,,,,,,,,,,,,106,001,2021_Sep_28_1444,joplin1,2021.2.3,59.99088138643422,
_train_cond.csv,1 0 0 0 0 0 0 0 0 1,2,categoryB,j,,,0,4,4,7,2,3,31,7,,,,,,,,,,,,,,,,,,,None,0,,,,,,,,,,,,,,,,,,,,,,,,,,,,,,,,106,001,2021_Sep_28_1444,joplin1,2021.2.3,59.99088138643422,
_train_cond.csv,0 0 0 1 1 1 1 0 0 0,4,categoryB,j,,,0,4,4,7,2,4,32,10,,,,,,,,,,,,,,,,,,,f,0,0.31067862501367927,,,,,,,,,,,,,,,,,,,,,,,,,,,,,,,106,001,2021_Sep_28_1444,joplin1,2021.2.3,59.99088138643422,
_train_cond.csv,0 1 1 1 1 1 1 1 1 0,8,categoryA,f,,,0,4,4,7,2,5,33,0,,,,,,,,,,,,,,,,,,,j,0,0.4000065830186941,,,,,,,,,,,,,,,,,,,,,,,,,,,,,,,106,001,2021_Sep_28_1444,joplin1,2021.2.3,59.99088138643422,
_train_cond.csv,0 0 0 1 0 0 1 0 0 0,2,categoryB,j,,,0,4,4,7,2,6,34,11,,,,,,,,,,,,,,,,,,,f,0,0.2932268329896033,,,,,,,,,,,,,,,,,,,,,,,,,,,,,,,106,001,2021_Sep_28_1444,joplin1,2021.2.3,59.99088138643422,
_train_cond.csv,1 1 0 0 0 0 0 0 1 1,4,categoryB,j,,,0,4,4,7,2,7,35,13,,,,,,,,,,,,,,,,,,,j,1,0.41470341698732227,,,,,,,,,,,,,,,,,,,,,,,,,,,,,,,106,001,2021_Sep_28_1444,joplin1,2021.2.3,59.99088138643422,
_train_cond.csv,0 0 1 0 1 1 0 1 0 0,4,categoryB,j,,,0,4,4,7,2,8,36,9,,,,,,,,,,,,,,,,,,,f,0,0.33105995797086507,,,,,,,,,,,,,,,,,,,,,,,,,,,,,,,106,001,2021_Sep_28_1444,joplin1,2021.2.3,59.99088138643422,
_train_cond.csv,0 0 1 1 1 1 1 1 0 0,6,categoryA,f,,,0,4,4,7,2,9,37,6,,,,,,,,,,,,,,,,,,,j,0,0.3487765829777345,,,,,,,,,,,,,,,,,,,,,,,,,,,,,,,106,001,2021_Sep_28_1444,joplin1,2021.2.3,59.99088138643422,
_train_cond.csv,0 0 1 0 0 0 0 1 0 0,2,categoryB,j,,,0,4,4,7,2,10,38,12,,,,,,,,,,,,,,,,,,,f,0,0.5242232910241,,,,,,,,,,,,,,,,,,,,,,,,,,,,,,,106,001,2021_Sep_28_1444,joplin1,2021.2.3,59.99088138643422,
_train_cond.csv,0 1 0 0 0 0 0 0 1 0,2,categoryB,j,,,0,4,4,7,2,11,39,8,,,,,,,,,,,,,,,,,,,f,0,0.7883585829986259,,,,,,,,,,,,,,,,,,,,,,,,,,,,,,,106,001,2021_Sep_28_1444,joplin1,2021.2.3,59.99088138643422,
_train_cond.csv,1 0 1 1 1 1 1 1 0 1,8,categoryA,f,,,0,4,4,7,2,12,40,1,,,,,,,,,,,,,,,,,,,f,1,0.28237083298154175,,,,,,,,,,,,,,,,,,,,,,,,,,,,,,,106,001,2021_Sep_28_1444,joplin1,2021.2.3,59.99088138643422,
_train_cond.csv,1 1 1 0 0 0 0 1 1 1,6,categoryA,f,,,0,4,4,7,2,13,41,3,,,,,,,,,,,,,,,,,,,j,0,0.28501995897386223,,,,,,,,,,,,,,,,,,,,,,,,,,,,,,,106,001,2021_Sep_28_1444,joplin1,2021.2.3,59.99088138643422,
_train_cond.csv,,,,,,,0,4,4,7,,,,,,,,,,,,,,,,,,,,,,,,,,space,56.08126887504477,,,,,,,,,,,,,,,,,,,,,,,,,,,,,106,001,2021_Sep_28_1444,joplin1,2021.2.3,59.99088138643422,
_train_cond.csv,1 1 1 0 1 1 0 1 1 1,8,categoryA,f,,,0,5,5,3,0,0,0,4,,,,,,,,,,,,,,,,,,,f,1,1.3133145830361173,,,,,,,,,,,,,,,,,,,,,,,,,,,,,,,106,001,2021_Sep_28_1444,joplin1,2021.2.3,59.99088138643422,
_train_cond.csv,1 0 0 0 0 0 0 0 0 1,2,categoryB,j,,,0,5,5,3,0,1,1,7,,,,,,,,,,,,,,,,,,,j,1,0.43469137500505894,,,,,,,,,,,,,,,,,,,,,,,,,,,,,,,106,001,2021_Sep_28_1444,joplin1,2021.2.3,59.99088138643422,
_train_cond.csv,0 1 0 0 0 0 0 0 1 0,2,categoryB,j,,,0,5,5,3,0,2,2,8,,,,,,,,,,,,,,,,,,,f,0,0.3329559169942513,,,,,,,,,,,,,,,,,,,,,,,,,,,,,,,106,001,2021_Sep_28_1444,joplin1,2021.2.3,59.99088138643422,
_train_cond.csv,1 1 0 1 0 0 1 0 1 1,6,categoryA,f,,,0,5,5,3,0,3,3,2,,,,,,,,,,,,,,,,,,,f,1,0.5579783329740167,,,,,,,,,,,,,,,,,,,,,,,,,,,,,,,106,001,2021_Sep_28_1444,joplin1,2021.2.3,59.99088138643422,
_train_cond.csv,1 0 1 1 1 1 1 1 0 1,8,categoryA,f,,,0,5,5,3,0,4,4,1,,,,,,,,,,,,,,,,,,,j,0,0.7482548750122078,,,,,,,,,,,,,,,,,,,,,,,,,,,,,,,106,001,2021_Sep_28_1444,joplin1,2021.2.3,59.99088138643422,
_train_cond.csv,0 0 1 0 0 0 0 1 0 0,2,categoryB,j,,,0,5,5,3,0,5,5,12,,,,,,,,,,,,,,,,,,,j,1,1.0045857499935664,,,,,,,,,,,,,,,,,,,,,,,,,,,,,,,106,001,2021_Sep_28_1444,joplin1,2021.2.3,59.99088138643422,
_train_cond.csv,0 0 1 1 1 1 1 1 0 0,6,categoryA,f,,,0,5,5,3,0,6,6,6,,,,,,,,,,,,,,,,,,,f,1,0.7455254169763066,,,,,,,,,,,,,,,,,,,,,,,,,,,,,,,106,001,2021_Sep_28_1444,joplin1,2021.2.3,59.99088138643422,
_train_cond.csv,0 1 1 1 1 1 1 1 1 0,8,categoryA,f,,,0,5,5,3,0,7,7,0,,,,,,,,,,,,,,,,,,,j,0,0.7770876249996945,,,,,,,,,,,,,,,,,,,,,,,,,,,,,,,106,001,2021_Sep_28_1444,joplin1,2021.2.3,59.99088138643422,
_train_cond.csv,1 1 0 0 0 0 0 0 1 1,4,categoryB,j,,,0,5,5,3,0,8,8,13,,,,,,,,,,,,,,,,,,,f,0,0.687277625023853,,,,,,,,,,,,,,,,,,,,,,,,,,,,,,,106,001,2021_Sep_28_1444,joplin1,2021.2.3,59.99088138643422,
_train_cond.csv,0 0 1 0 1 1 0 1 0 0,4,categoryB,j,,,0,5,5,3,0,9,9,9,,,,,,,,,,,,,,,,,,,j,1,0.553784458024893,,,,,,,,,,,,,,,,,,,,,,,,,,,,,,,106,001,2021_Sep_28_1444,joplin1,2021.2.3,59.99088138643422,
_train_cond.csv,1 1 0 1 1 1 1 0 1 1,8,categoryA,f,,,0,5,5,3,0,10,10,5,,,,,,,,,,,,,,,,,,,f,1,0.9431200409890153,,,,,,,,,,,,,,,,,,,,,,,,,,,,,,,106,001,2021_Sep_28_1444,joplin1,2021.2.3,59.99088138643422,
_train_cond.csv,1 1 1 0 0 0 0 1 1 1,6,categoryA,f,,,0,5,5,3,0,11,11,3,,,,,,,,,,,,,,,,,,,j,0,0.5748994579771534,,,,,,,,,,,,,,,,,,,,,,,,,,,,,,,106,001,2021_Sep_28_1444,joplin1,2021.2.3,59.99088138643422,
_train_cond.csv,0 0 0 1 0 0 1 0 0 0,2,categoryB,j,,,0,5,5,3,0,12,12,11,,,,,,,,,,,,,,,,,,,f,0,0.9735647920169868,,,,,,,,,,,,,,,,,,,,,,,,,,,,,,,106,001,2021_Sep_28_1444,joplin1,2021.2.3,59.99088138643422,
_train_cond.csv,0 0 0 1 1 1 1 0 0 0,4,categoryB,j,,,0,5,5,3,0,13,13,10,,,,,,,,,,,,,,,,,,,j,1,1.084275749977678,,,,,,,,,,,,,,,,,,,,,,,,,,,,,,,106,001,2021_Sep_28_1444,joplin1,2021.2.3,59.99088138643422,
_train_cond.csv,1 0 0 0 0 0 0 0 0 1,2,categoryB,j,,,0,5,5,3,1,0,14,7,,,,,,,,,,,,,,,,,,,j,1,0.9989000830100849,,,,,,,,,,,,,,,,,,,,,,,,,,,,,,,106,001,2021_Sep_28_1444,joplin1,2021.2.3,59.99088138643422,
_train_cond.csv,0 0 1 1 1 1 1 1 0 0,6,categoryA,f,,,0,5,5,3,1,1,15,6,,,,,,,,,,,,,,,,,,,f,1,0.5727453749859706,,,,,,,,,,,,,,,,,,,,,,,,,,,,,,,106,001,2021_Sep_28_1444,joplin1,2021.2.3,59.99088138643422,
_train_cond.csv,1 1 0 1 0 0 1 0 1 1,6,categoryA,f,,,0,5,5,3,1,2,16,2,,,,,,,,,,,,,,,,,,,j,0,0.5383539579925127,,,,,,,,,,,,,,,,,,,,,,,,,,,,,,,106,001,2021_Sep_28_1444,joplin1,2021.2.3,59.99088138643422,
_train_cond.csv,1 1 0 0 0 0 0 0 1 1,4,categoryB,j,,,0,5,5,3,1,3,17,13,,,,,,,,,,,,,,,,,,,f,0,0.5301844580098987,,,,,,,,,,,,,,,,,,,,,,,,,,,,,,,106,001,2021_Sep_28_1444,joplin1,2021.2.3,59.99088138643422,
_train_cond.csv,0 1 0 0 0 0 0 0 1 0,2,categoryB,j,,,0,5,5,3,1,4,18,8,,,,,,,,,,,,,,,,,,,j,1,0.2735473329667002,,,,,,,,,,,,,,,,,,,,,,,,,,,,,,,106,001,2021_Sep_28_1444,joplin1,2021.2.3,59.99088138643422,
_train_cond.csv,0 0 0 1 1 1 1 0 0 0,4,categoryB,j,,,0,5,5,3,1,5,19,10,,,,,,,,,,,,,,,,,,,f,0,0.15667895798105747,,,,,,,,,,,,,,,,,,,,,,,,,,,,,,,106,001,2021_Sep_28_1444,joplin1,2021.2.3,59.99088138643422,
_train_cond.csv,1 1 1 0 0 0 0 1 1 1,6,categoryA,f,,,0,5,5,3,1,6,20,3,,,,,,,,,,,,,,,,,,,j,0,0.3718019590014592,,,,,,,,,,,,,,,,,,,,,,,,,,,,,,,106,001,2021_Sep_28_1444,joplin1,2021.2.3,59.99088138643422,
_train_cond.csv,0 0 1 0 1 1 0 1 0 0,4,categoryB,j,,,0,5,5,3,1,7,21,9,,,,,,,,,,,,,,,,,,,f,0,0.3147057919995859,,,,,,,,,,,,,,,,,,,,,,,,,,,,,,,106,001,2021_Sep_28_1444,joplin1,2021.2.3,59.99088138643422,
_train_cond.csv,0 0 0 1 0 0 1 0 0 0,2,categoryB,j,,,0,5,5,3,1,8,22,11,,,,,,,,,,,,,,,,,,,f,0,0.23554195801261812,,,,,,,,,,,,,,,,,,,,,,,,,,,,,,,106,001,2021_Sep_28_1444,joplin1,2021.2.3,59.99088138643422,
_train_cond.csv,1 0 1 1 1 1 1 1 0 1,8,categoryA,f,,,0,5,5,3,1,9,23,1,,,,,,,,,,,,,,,,,,,f,1,0.41558370797429234,,,,,,,,,,,,,,,,,,,,,,,,,,,,,,,106,001,2021_Sep_28_1444,joplin1,2021.2.3,59.99088138643422,
_train_cond.csv,0 1 1 1 1 1 1 1 1 0,8,categoryA,f,,,0,5,5,3,1,10,24,0,,,,,,,,,,,,,,,,,,,f,1,0.38823245896492153,,,,,,,,,,,,,,,,,,,,,,,,,,,,,,,106,001,2021_Sep_28_1444,joplin1,2021.2.3,59.99088138643422,
_train_cond.csv,1 1 0 1 1 1 1 0 1 1,8,categoryA,f,,,0,5,5,3,1,11,25,5,,,,,,,,,,,,,,,,,,,j,0,0.37874762498540804,,,,,,,,,,,,,,,,,,,,,,,,,,,,,,,106,001,2021_Sep_28_1444,joplin1,2021.2.3,59.99088138643422,
_train_cond.csv,0 0 1 0 0 0 0 1 0 0,2,categoryB,j,,,0,5,5,3,1,12,26,12,,,,,,,,,,,,,,,,,,,f,0,0.16903475002618507,,,,,,,,,,,,,,,,,,,,,,,,,,,,,,,106,001,2021_Sep_28_1444,joplin1,2021.2.3,59.99088138643422,
_train_cond.csv,1 1 1 0 1 1 0 1 1 1,8,categoryA,f,,,0,5,5,3,1,13,27,4,,,,,,,,,,,,,,,,,,,j,0,0.343280708999373,,,,,,,,,,,,,,,,,,,,,,,,,,,,,,,106,001,2021_Sep_28_1444,joplin1,2021.2.3,59.99088138643422,
_train_cond.csv,1 0 1 1 1 1 1 1 0 1,8,categoryA,f,,,0,5,5,3,2,0,28,1,,,,,,,,,,,,,,,,,,,f,1,1.1594952499726787,,,,,,,,,,,,,,,,,,,,,,,,,,,,,,,106,001,2021_Sep_28_1444,joplin1,2021.2.3,59.99088138643422,
_train_cond.csv,0 0 0 1 1 1 1 0 0 0,4,categoryB,j,,,0,5,5,3,2,1,29,10,,,,,,,,,,,,,,,,,,,f,0,0.3662812089896761,,,,,,,,,,,,,,,,,,,,,,,,,,,,,,,106,001,2021_Sep_28_1444,joplin1,2021.2.3,59.99088138643422,
_train_cond.csv,0 1 0 0 0 0 0 0 1 0,2,categoryB,j,,,0,5,5,3,2,2,30,8,,,,,,,,,,,,,,,,,,,j,1,0.9177907090052031,,,,,,,,,,,,,,,,,,,,,,,,,,,,,,,106,001,2021_Sep_28_1444,joplin1,2021.2.3,59.99088138643422,
_train_cond.csv,1 1 0 1 1 1 1 0 1 1,8,categoryA,f,,,0,5,5,3,2,3,31,5,,,,,,,,,,,,,,,,,,,j,0,1.060850458976347,,,,,,,,,,,,,,,,,,,,,,,,,,,,,,,106,001,2021_Sep_28_1444,joplin1,2021.2.3,59.99088138643422,
_train_cond.csv,0 1 1 1 1 1 1 1 1 0,8,categoryA,f,,,0,5,5,3,2,4,32,0,,,,,,,,,,,,,,,,,,,f,1,0.4609869580017403,,,,,,,,,,,,,,,,,,,,,,,,,,,,,,,106,001,2021_Sep_28_1444,joplin1,2021.2.3,59.99088138643422,
_train_cond.csv,1 1 1 0 0 0 0 1 1 1,6,categoryA,f,,,0,5,5,3,2,5,33,3,,,,,,,,,,,,,,,,,,,j,0,0.6326930830255151,,,,,,,,,,,,,,,,,,,,,,,,,,,,,,,106,001,2021_Sep_28_1444,joplin1,2021.2.3,59.99088138643422,
_train_cond.csv,1 0 0 0 0 0 0 0 0 1,2,categoryB,j,,,0,5,5,3,2,6,34,7,,,,,,,,,,,,,,,,,,,j,1,0.4443556669866666,,,,,,,,,,,,,,,,,,,,,,,,,,,,,,,106,001,2021_Sep_28_1444,joplin1,2021.2.3,59.99088138643422,
_train_cond.csv,1 1 0 0 0 0 0 0 1 1,4,categoryB,j,,,0,5,5,3,2,7,35,13,,,,,,,,,,,,,,,,,,,j,1,0.4150127919856459,,,,,,,,,,,,,,,,,,,,,,,,,,,,,,,106,001,2021_Sep_28_1444,joplin1,2021.2.3,59.99088138643422,
_train_cond.csv,0 0 0 1 0 0 1 0 0 0,2,categoryB,j,,,0,5,5,3,2,8,36,11,,,,,,,,,,,,,,,,,,,j,1,0.8122132499702275,,,,,,,,,,,,,,,,,,,,,,,,,,,,,,,106,001,2021_Sep_28_1444,joplin1,2021.2.3,59.99088138643422,
_train_cond.csv,0 0 1 1 1 1 1 1 0 0,6,categoryA,f,,,0,5,5,3,2,9,37,6,,,,,,,,,,,,,,,,,,,f,1,0.2733603339875117,,,,,,,,,,,,,,,,,,,,,,,,,,,,,,,106,001,2021_Sep_28_1444,joplin1,2021.2.3,59.99088138643422,
_train_cond.csv,1 1 0 1 0 0 1 0 1 1,6,categoryA,f,,,0,5,5,3,2,10,38,2,,,,,,,,,,,,,,,,,,,j,0,0.4741935839992948,,,,,,,,,,,,,,,,,,,,,,,,,,,,,,,106,001,2021_Sep_28_1444,joplin1,2021.2.3,59.99088138643422,
_train_cond.csv,0 0 1 0 0 0 0 1 0 0,2,categoryB,j,,,0,5,5,3,2,11,39,12,,,,,,,,,,,,,,,,,,,j,1,0.5561945419758558,,,,,,,,,,,,,,,,,,,,,,,,,,,,,,,106,001,2021_Sep_28_1444,joplin1,2021.2.3,59.99088138643422,
_train_cond.csv,0 0 1 0 1 1 0 1 0 0,4,categoryB,j,,,0,5,5,3,2,12,40,9,,,,,,,,,,,,,,,,,,,j,1,0.4262311659986153,,,,,,,,,,,,,,,,,,,,,,,,,,,,,,,106,001,2021_Sep_28_1444,joplin1,2021.2.3,59.99088138643422,
_train_cond.csv,1 1 1 0 1 1 0 1 1 1,8,categoryA,f,,,0,5,5,3,2,13,41,4,,,,,,,,,,,,,,,,,,,j,0,1.695685374957975,,,,,,,,,,,,,,,,,,,,,,,,,,,,,,,106,001,2021_Sep_28_1444,joplin1,2021.2.3,59.99088138643422,
_train_cond.csv,,,,,,,0,5,5,3,,,,,,,,,,,,,,,,,,,,,,,,,,space,58.77844466699753,,,,,,,,,,,,,,,,,,,,,,,,,,,,,106,001,2021_Sep_28_1444,joplin1,2021.2.3,59.99088138643422,
_train_cond.csv,0 0 1 0 1 1 0 1 0 0,4,categoryB,j,,,0,6,6,1,0,0,0,9,,,,,,,,,,,,,,,,,,,f,0,0.8866516670095734,,,,,,,,,,,,,,,,,,,,,,,,,,,,,,,106,001,2021_Sep_28_1444,joplin1,2021.2.3,59.99088138643422,
_train_cond.csv,1 0 0 0 0 0 0 0 0 1,2,categoryB,j,,,0,6,6,1,0,1,1,7,,,,,,,,,,,,,,,,,,,j,1,0.12098508299095556,,,,,,,,,,,,,,,,,,,,,,,,,,,,,,,106,001,2021_Sep_28_1444,joplin1,2021.2.3,59.99088138643422,
_train_cond.csv,1 1 0 1 0 0 1 0 1 1,6,categoryA,f,,,0,6,6,1,0,2,2,2,,,,,,,,,,,,,,,,,,,f,1,0.5928474579704925,,,,,,,,,,,,,,,,,,,,,,,,,,,,,,,106,001,2021_Sep_28_1444,joplin1,2021.2.3,59.99088138643422,
_train_cond.csv,0 0 1 1 1 1 1 1 0 0,6,categoryA,f,,,0,6,6,1,0,3,3,6,,,,,,,,,,,,,,,,,,,j,0,0.8528525829897262,,,,,,,,,,,,,,,,,,,,,,,,,,,,,,,106,001,2021_Sep_28_1444,joplin1,2021.2.3,59.99088138643422,
_train_cond.csv,0 0 0 1 1 1 1 0 0 0,4,categoryB,j,,,0,6,6,1,0,4,4,10,,,,,,,,,,,,,,,,,,,j,1,0.41576237499248236,,,,,,,,,,,,,,,,,,,,,,,,,,,,,,,106,001,2021_Sep_28_1444,joplin1,2021.2.3,59.99088138643422,
_train_cond.csv,0 0 1 0 0 0 0 1 0 0,2,categoryB,j,,,0,6,6,1,0,5,5,12,,,,,,,,,,,,,,,,,,,j,1,0.3175967079587281,,,,,,,,,,,,,,,,,,,,,,,,,,,,,,,106,001,2021_Sep_28_1444,joplin1,2021.2.3,59.99088138643422,
_train_cond.csv,0 0 0 1 0 0 1 0 0 0,2,categoryB,j,,,0,6,6,1,0,6,6,11,,,,,,,,,,,,,,,,,,,f,0,0.3584815000067465,,,,,,,,,,,,,,,,,,,,,,,,,,,,,,,106,001,2021_Sep_28_1444,joplin1,2021.2.3,59.99088138643422,
_train_cond.csv,1 1 1 0 0 0 0 1 1 1,6,categoryA,f,,,0,6,6,1,0,7,7,3,,,,,,,,,,,,,,,,,,,j,0,1.5736173340119421,,,,,,,,,,,,,,,,,,,,,,,,,,,,,,,106,001,2021_Sep_28_1444,joplin1,2021.2.3,59.99088138643422,
_train_cond.csv,1 1 0 1 1 1 1 0 1 1,8,categoryA,f,,,0,6,6,1,0,8,8,5,,,,,,,,,,,,,,,,,,,j,0,1.171645125024952,,,,,,,,,,,,,,,,,,,,,,,,,,,,,,,106,001,2021_Sep_28_1444,joplin1,2021.2.3,59.99088138643422,
_train_cond.csv,1 1 0 0 0 0 0 0 1 1,4,categoryB,j,,,0,6,6,1,0,9,9,13,,,,,,,,,,,,,,,,,,,j,1,0.4337574169621803,,,,,,,,,,,,,,,,,,,,,,,,,,,,,,,106,001,2021_Sep_28_1444,joplin1,2021.2.3,59.99088138643422,
_train_cond.csv,0 1 0 0 0 0 0 0 1 0,2,categoryB,j,,,0,6,6,1,0,10,10,8,,,,,,,,,,,,,,,,,,,j,1,1.0703702499740757,,,,,,,,,,,,,,,,,,,,,,,,,,,,,,,106,001,2021_Sep_28_1444,joplin1,2021.2.3,59.99088138643422,
_train_cond.csv,1 1 1 0 1 1 0 1 1 1,8,categoryA,f,,,0,6,6,1,0,11,11,4,,,,,,,,,,,,,,,,,,,f,1,1.7216192500200123,,,,,,,,,,,,,,,,,,,,,,,,,,,,,,,106,001,2021_Sep_28_1444,joplin1,2021.2.3,59.99088138643422,
_train_cond.csv,0 1 1 1 1 1 1 1 1 0,8,categoryA,f,,,0,6,6,1,0,12,12,0,,,,,,,,,,,,,,,,,,,f,1,0.38630504097091034,,,,,,,,,,,,,,,,,,,,,,,,,,,,,,,106,001,2021_Sep_28_1444,joplin1,2021.2.3,59.99088138643422,
_train_cond.csv,1 0 1 1 1 1 1 1 0 1,8,categoryA,f,,,0,6,6,1,0,13,13,1,,,,,,,,,,,,,,,,,,,f,1,0.5599975000368431,,,,,,,,,,,,,,,,,,,,,,,,,,,,,,,106,001,2021_Sep_28_1444,joplin1,2021.2.3,59.99088138643422,
_train_cond.csv,0 0 0 1 0 0 1 0 0 0,2,categoryB,j,,,0,6,6,1,1,0,14,11,,,,,,,,,,,,,,,,,,,j,1,0.3680774169624783,,,,,,,,,,,,,,,,,,,,,,,,,,,,,,,106,001,2021_Sep_28_1444,joplin1,2021.2.3,59.99088138643422,
_train_cond.csv,1 1 0 1 1 1 1 0 1 1,8,categoryA,f,,,0,6,6,1,1,1,15,5,,,,,,,,,,,,,,,,,,,j,0,0.41490362503100187,,,,,,,,,,,,,,,,,,,,,,,,,,,,,,,106,001,2021_Sep_28_1444,joplin1,2021.2.3,59.99088138643422,
_train_cond.csv,1 0 1 1 1 1 1 1 0 1,8,categoryA,f,,,0,6,6,1,1,2,16,1,,,,,,,,,,,,,,,,,,,f,1,0.21010404196567833,,,,,,,,,,,,,,,,,,,,,,,,,,,,,,,106,001,2021_Sep_28_1444,joplin1,2021.2.3,59.99088138643422,
_train_cond.csv,1 0 0 0 0 0 0 0 0 1,2,categoryB,j,,,0,6,6,1,1,3,17,7,,,,,,,,,,,,,,,,,,,j,1,0.6388220840017311,,,,,,,,,,,,,,,,,,,,,,,,,,,,,,,106,001,2021_Sep_28_1444,joplin1,2021.2.3,59.99088138643422,
_train_cond.csv,0 0 1 1 1 1 1 1 0 0,6,categoryA,f,,,0,6,6,1,1,4,18,6,,,,,,,,,,,,,,,,,,,f,1,0.36174287501489744,,,,,,,,,,,,,,,,,,,,,,,,,,,,,,,106,001,2021_Sep_28_1444,joplin1,2021.2.3,59.99088138643422,
_train_cond.csv,0 0 1 0 1 1 0 1 0 0,4,categoryB,j,,,0,6,6,1,1,5,19,9,,,,,,,,,,,,,,,,,,,f,0,0.4404375000158325,,,,,,,,,,,,,,,,,,,,,,,,,,,,,,,106,001,2021_Sep_28_1444,joplin1,2021.2.3,59.99088138643422,
_train_cond.csv,1 1 1 0 0 0 0 1 1 1,6,categoryA,f,,,0,6,6,1,1,6,20,3,,,,,,,,,,,,,,,,,,,f,1,0.9885896249907091,,,,,,,,,,,,,,,,,,,,,,,,,,,,,,,106,001,2021_Sep_28_1444,joplin1,2021.2.3,59.99088138643422,
_train_cond.csv,1 1 0 1 0 0 1 0 1 1,6,categoryA,f,,,0,6,6,1,1,7,21,2,,,,,,,,,,,,,,,,,,,j,0,0.4749645420233719,,,,,,,,,,,,,,,,,,,,,,,,,,,,,,,106,001,2021_Sep_28_1444,joplin1,2021.2.3,59.99088138643422,
_train_cond.csv,0 1 1 1 1 1 1 1 1 0,8,categoryA,f,,,0,6,6,1,1,8,22,0,,,,,,,,,,,,,,,,,,,f,1,1.2683479170082137,,,,,,,,,,,,,,,,,,,,,,,,,,,,,,,106,001,2021_Sep_28_1444,joplin1,2021.2.3,59.99088138643422,
_train_cond.csv,0 1 0 0 0 0 0 0 1 0,2,categoryB,j,,,0,6,6,1,1,9,23,8,,,,,,,,,,,,,,,,,,,j,1,0.4083838330116123,,,,,,,,,,,,,,,,,,,,,,,,,,,,,,,106,001,2021_Sep_28_1444,joplin1,2021.2.3,59.99088138643422,
_train_cond.csv,1 1 0 0 0 0 0 0 1 1,4,categoryB,j,,,0,6,6,1,1,10,24,13,,,,,,,,,,,,,,,,,,,j,1,0.6936018749838695,,,,,,,,,,,,,,,,,,,,,,,,,,,,,,,106,001,2021_Sep_28_1444,joplin1,2021.2.3,59.99088138643422,
_train_cond.csv,1 1 1 0 1 1 0 1 1 1,8,categoryA,f,,,0,6,6,1,1,11,25,4,,,,,,,,,,,,,,,,,,,f,1,0.9508772499975748,,,,,,,,,,,,,,,,,,,,,,,,,,,,,,,106,001,2021_Sep_28_1444,joplin1,2021.2.3,59.99088138643422,
_train_cond.csv,0 0 1 0 0 0 0 1 0 0,2,categoryB,j,,,0,6,6,1,1,12,26,12,,,,,,,,,,,,,,,,,,,f,0,0.9409682910190895,,,,,,,,,,,,,,,,,,,,,,,,,,,,,,,106,001,2021_Sep_28_1444,joplin1,2021.2.3,59.99088138643422,
_train_cond.csv,0 0 0 1 1 1 1 0 0 0,4,categoryB,j,,,0,6,6,1,1,13,27,10,,,,,,,,,,,,,,,,,,,f,0,0.3329341249773279,,,,,,,,,,,,,,,,,,,,,,,,,,,,,,,106,001,2021_Sep_28_1444,joplin1,2021.2.3,59.99088138643422,
_train_cond.csv,1 1 0 1 1 1 1 0 1 1,8,categoryA,f,,,0,6,6,1,2,0,28,5,,,,,,,,,,,,,,,,,,,f,1,0.38278016704134643,,,,,,,,,,,,,,,,,,,,,,,,,,,,,,,106,001,2021_Sep_28_1444,joplin1,2021.2.3,59.99088138643422,
_train_cond.csv,0 1 1 1 1 1 1 1 1 0,8,categoryA,f,,,0,6,6,1,2,1,29,0,,,,,,,,,,,,,,,,,,,f,1,0.3244954999536276,,,,,,,,,,,,,,,,,,,,,,,,,,,,,,,106,001,2021_Sep_28_1444,joplin1,2021.2.3,59.99088138643422,
_train_cond.csv,1 1 0 1 0 0 1 0 1 1,6,categoryA,f,,,0,6,6,1,2,2,30,2,,,,,,,,,,,,,,,,,,,j,0,1.6535855829715729,,,,,,,,,,,,,,,,,,,,,,,,,,,,,,,106,001,2021_Sep_28_1444,joplin1,2021.2.3,59.99088138643422,
_train_cond.csv,1 0 1 1 1 1 1 1 0 1,8,categoryA,f,,,0,6,6,1,2,3,31,1,,,,,,,,,,,,,,,,,,,f,1,0.3041801250074059,,,,,,,,,,,,,,,,,,,,,,,,,,,,,,,106,001,2021_Sep_28_1444,joplin1,2021.2.3,59.99088138643422,
_train_cond.csv,0 1 0 0 0 0 0 0 1 0,2,categoryB,j,,,0,6,6,1,2,4,32,8,,,,,,,,,,,,,,,,,,,j,1,0.7371348339947872,,,,,,,,,,,,,,,,,,,,,,,,,,,,,,,106,001,2021_Sep_28_1444,joplin1,2021.2.3,59.99088138643422,
_train_cond.csv,1 1 1 0 0 0 0 1 1 1,6,categoryA,f,,,0,6,6,1,2,5,33,3,,,,,,,,,,,,,,,,,,,f,1,0.7129110840032808,,,,,,,,,,,,,,,,,,,,,,,,,,,,,,,106,001,2021_Sep_28_1444,joplin1,2021.2.3,59.99088138643422,
_train_cond.csv,0 0 1 0 0 0 0 1 0 0,2,categoryB,j,,,0,6,6,1,2,6,34,12,,,,,,,,,,,,,,,,,,,f,0,0.5775417500408366,,,,,,,,,,,,,,,,,,,,,,,,,,,,,,,106,001,2021_Sep_28_1444,joplin1,2021.2.3,59.99088138643422,
_train_cond.csv,0 0 0 1 1 1 1 0 0 0,4,categoryB,j,,,0,6,6,1,2,7,35,10,,,,,,,,,,,,,,,,,,,j,1,1.4000367079861462,,,,,,,,,,,,,,,,,,,,,,,,,,,,,,,106,001,2021_Sep_28_1444,joplin1,2021.2.3,59.99088138643422,
_train_cond.csv,1 1 1 0 1 1 0 1 1 1,8,categoryA,f,,,0,6,6,1,2,8,36,4,,,,,,,,,,,,,,,,,,,f,1,1.1415460420539603,,,,,,,,,,,,,,,,,,,,,,,,,,,,,,,106,001,2021_Sep_28_1444,joplin1,2021.2.3,59.99088138643422,
_train_cond.csv,1 0 0 0 0 0 0 0 0 1,2,categoryB,j,,,0,6,6,1,2,9,37,7,,,,,,,,,,,,,,,,,,,j,1,1.4198706250172108,,,,,,,,,,,,,,,,,,,,,,,,,,,,,,,106,001,2021_Sep_28_1444,joplin1,2021.2.3,59.99088138643422,
_train_cond.csv,1 1 0 0 0 0 0 0 1 1,4,categoryB,j,,,0,6,6,1,2,10,38,13,,,,,,,,,,,,,,,,,,,f,0,1.0316711670020595,,,,,,,,,,,,,,,,,,,,,,,,,,,,,,,106,001,2021_Sep_28_1444,joplin1,2021.2.3,59.99088138643422,
_train_cond.csv,0 0 0 1 0 0 1 0 0 0,2,categoryB,j,,,0,6,6,1,2,11,39,11,,,,,,,,,,,,,,,,,,,f,0,0.26810120802838355,,,,,,,,,,,,,,,,,,,,,,,,,,,,,,,106,001,2021_Sep_28_1444,joplin1,2021.2.3,59.99088138643422,
_train_cond.csv,0 0 1 1 1 1 1 1 0 0,6,categoryA,f,,,0,6,6,1,2,12,40,6,,,,,,,,,,,,,,,,,,,f,1,0.8068065000115894,,,,,,,,,,,,,,,,,,,,,,,,,,,,,,,106,001,2021_Sep_28_1444,joplin1,2021.2.3,59.99088138643422,
_train_cond.csv,0 0 1 0 1 1 0 1 0 0,4,categoryB,j,,,0,6,6,1,2,13,41,9,,,,,,,,,,,,,,,,,,,f,0,0.9874337919754907,,,,,,,,,,,,,,,,,,,,,,,,,,,,,,,106,001,2021_Sep_28_1444,joplin1,2021.2.3,59.99088138643422,
_train_cond.csv,,,,,,,0,6,6,1,,,,,,,,,,,,,,,,,,,,,,,,,,space,64.61860312503995,,,,,,,,,,,,,,,,,,,,,,,,,,,,,106,001,2021_Sep_28_1444,joplin1,2021.2.3,59.99088138643422,
_train_cond.csv,1 1 0 1 0 0 1 0 1 1,6,categoryA,f,,,0,7,7,6,0,0,0,2,,,,,,,,,,,,,,,,,,,f,1,0.7407489590113983,,,,,,,,,,,,,,,,,,,,,,,,,,,,,,,106,001,2021_Sep_28_1444,joplin1,2021.2.3,59.99088138643422,
_train_cond.csv,1 1 1 0 1 1 0 1 1 1,8,categoryA,f,,,0,7,7,6,0,1,1,4,,,,,,,,,,,,,,,,,,,f,1,1.707892833976075,,,,,,,,,,,,,,,,,,,,,,,,,,,,,,,106,001,2021_Sep_28_1444,joplin1,2021.2.3,59.99088138643422,
_train_cond.csv,1 0 0 0 0 0 0 0 0 1,2,categoryB,j,,,0,7,7,6,0,2,2,7,,,,,,,,,,,,,,,,,,,j,1,0.9344750000163913,,,,,,,,,,,,,,,,,,,,,,,,,,,,,,,106,001,2021_Sep_28_1444,joplin1,2021.2.3,59.99088138643422,
_train_cond.csv,0 0 0 1 0 0 1 0 0 0,2,categoryB,j,,,0,7,7,6,0,3,3,11,,,,,,,,,,,,,,,,,,,f,0,0.6629105000174604,,,,,,,,,,,,,,,,,,,,,,,,,,,,,,,106,001,2021_Sep_28_1444,joplin1,2021.2.3,59.99088138643422,
_train_cond.csv,1 0 1 1 1 1 1 1 0 1,8,categoryA,f,,,0,7,7,6,0,4,4,1,,,,,,,,,,,,,,,,,,,j,0,0.9062052909866907,,,,,,,,,,,,,,,,,,,,,,,,,,,,,,,106,001,2021_Sep_28_1444,joplin1,2021.2.3,59.99088138643422,
_train_cond.csv,1 1 1 0 0 0 0 1 1 1,6,categoryA,f,,,0,7,7,6,0,5,5,3,,,,,,,,,,,,,,,,,,,j,0,1.587579499988351,,,,,,,,,,,,,,,,,,,,,,,,,,,,,,,106,001,2021_Sep_28_1444,joplin1,2021.2.3,59.99088138643422,
_train_cond.csv,0 0 1 0 1 1 0 1 0 0,4,categoryB,j,,,0,7,7,6,0,6,6,9,,,,,,,,,,,,,,,,,,,j,1,0.8416930000530556,,,,,,,,,,,,,,,,,,,,,,,,,,,,,,,106,001,2021_Sep_28_1444,joplin1,2021.2.3,59.99088138643422,
_train_cond.csv,1 1 0 0 0 0 0 0 1 1,4,categoryB,j,,,0,7,7,6,0,7,7,13,,,,,,,,,,,,,,,,,,,f,0,0.620777458010707,,,,,,,,,,,,,,,,,,,,,,,,,,,,,,,106,001,2021_Sep_28_1444,joplin1,2021.2.3,59.99088138643422,
_train_cond.csv,0 0 1 1 1 1 1 1 0 0,6,categoryA,f,,,0,7,7,6,0,8,8,6,,,,,,,,,,,,,,,,,,,j,0,0.5532367920386605,,,,,,,,,,,,,,,,,,,,,,,,,,,,,,,106,001,2021_Sep_28_1444,joplin1,2021.2.3,59.99088138643422,
_train_cond.csv,1 1 0 1 1 1 1 0 1 1,8,categoryA,f,,,0,7,7,6,0,9,9,5,,,,,,,,,,,,,,,,,,,j,0,0.2665819170069881,,,,,,,,,,,,,,,,,,,,,,,,,,,,,,,106,001,2021_Sep_28_1444,joplin1,2021.2.3,59.99088138643422,
_train_cond.csv,0 1 1 1 1 1 1 1 1 0,8,categoryA,f,,,0,7,7,6,0,10,10,0,,,,,,,,,,,,,,,,,,,f,1,0.8913733749650419,,,,,,,,,,,,,,,,,,,,,,,,,,,,,,,106,001,2021_Sep_28_1444,joplin1,2021.2.3,59.99088138643422,
_train_cond.csv,0 0 0 1 1 1 1 0 0 0,4,categoryB,j,,,0,7,7,6,0,11,11,10,,,,,,,,,,,,,,,,,,,j,1,0.3653535000048578,,,,,,,,,,,,,,,,,,,,,,,,,,,,,,,106,001,2021_Sep_28_1444,joplin1,2021.2.3,59.99088138643422,
_train_cond.csv,0 1 0 0 0 0 0 0 1 0,2,categoryB,j,,,0,7,7,6,0,12,12,8,,,,,,,,,,,,,,,,,,,f,0,1.6282351249828935,,,,,,,,,,,,,,,,,,,,,,,,,,,,,,,106,001,2021_Sep_28_1444,joplin1,2021.2.3,59.99088138643422,
_train_cond.csv,0 0 1 0 0 0 0 1 0 0,2,categoryB,j,,,0,7,7,6,0,13,13,12,,,,,,,,,,,,,,,,,,,j,1,0.2958204159513116,,,,,,,,,,,,,,,,,,,,,,,,,,,,,,,106,001,2021_Sep_28_1444,joplin1,2021.2.3,59.99088138643422,
_train_cond.csv,0 0 1 1 1 1 1 1 0 0,6,categoryA,f,,,0,7,7,6,1,0,14,6,,,,,,,,,,,,,,,,,,,f,1,0.7782481250469573,,,,,,,,,,,,,,,,,,,,,,,,,,,,,,,106,001,2021_Sep_28_1444,joplin1,2021.2.3,59.99088138643422,
_train_cond.csv,1 0 1 1 1 1 1 1 0 1,8,categoryA,f,,,0,7,7,6,1,1,15,1,,,,,,,,,,,,,,,,,,,f,1,0.11213145800866187,,,,,,,,,,,,,,,,,,,,,,,,,,,,,,,106,001,2021_Sep_28_1444,joplin1,2021.2.3,59.99088138643422,
_train_cond.csv,0 0 1 0 0 0 0 1 0 0,2,categoryB,j,,,0,7,7,6,1,2,16,12,,,,,,,,,,,,,,,,,,,j,1,0.7945240000262856,,,,,,,,,,,,,,,,,,,,,,,,,,,,,,,106,001,2021_Sep_28_1444,joplin1,2021.2.3,59.99088138643422,
_train_cond.csv,1 1 1 0 1 1 0 1 1 1,8,categoryA,f,,,0,7,7,6,1,3,17,4,,,,,,,,,,,,,,,,,,,f,1,2.0888923330348916,,,,,,,,,,,,,,,,,,,,,,,,,,,,,,,106,001,2021_Sep_28_1444,joplin1,2021.2.3,59.99088138643422,
_train_cond.csv,1 0 0 0 0 0 0 0 0 1,2,categoryB,j,,,0,7,7,6,1,4,18,7,,,,,,,,,,,,,,,,,,,j,1,0.7606946250307374,,,,,,,,,,,,,,,,,,,,,,,,,,,,,,,106,001,2021_Sep_28_1444,joplin1,2021.2.3,59.99088138643422,
_train_cond.csv,0 0 0 1 1 1 1 0 0 0,4,categoryB,j,,,0,7,7,6,1,5,19,10,,,,,,,,,,,,,,,,,,,f,0,0.7357551659806632,,,,,,,,,,,,,,,,,,,,,,,,,,,,,,,106,001,2021_Sep_28_1444,joplin1,2021.2.3,59.99088138643422,
_train_cond.csv,0 0 0 1 0 0 1 0 0 0,2,categoryB,j,,,0,7,7,6,1,6,20,11,,,,,,,,,,,,,,,,,,,j,1,0.5266419999534264,,,,,,,,,,,,,,,,,,,,,,,,,,,,,,,106,001,2021_Sep_28_1444,joplin1,2021.2.3,59.99088138643422,
_train_cond.csv,1 1 0 1 0 0 1 0 1 1,6,categoryA,f,,,0,7,7,6,1,7,21,2,,,,,,,,,,,,,,,,,,,f,1,0.9676678329706192,,,,,,,,,,,,,,,,,,,,,,,,,,,,,,,106,001,2021_Sep_28_1444,joplin1,2021.2.3,59.99088138643422,
_train_cond.csv,0 1 0 0 0 0 0 0 1 0,2,categoryB,j,,,0,7,7,6,1,8,22,8,,,,,,,,,,,,,,,,,,,j,1,0.534172750019934,,,,,,,,,,,,,,,,,,,,,,,,,,,,,,,106,001,2021_Sep_28_1444,joplin1,2021.2.3,59.99088138643422,
_train_cond.csv,1 1 0 1 1 1 1 0 1 1,8,categoryA,f,,,0,7,7,6,1,9,23,5,,,,,,,,,,,,,,,,,,,f,1,0.5275705420062877,,,,,,,,,,,,,,,,,,,,,,,,,,,,,,,106,001,2021_Sep_28_1444,joplin1,2021.2.3,59.99088138643422,
_train_cond.csv,1 1 0 0 0 0 0 0 1 1,4,categoryB,j,,,0,7,7,6,1,10,24,13,,,,,,,,,,,,,,,,,,,j,1,1.0073312079766765,,,,,,,,,,,,,,,,,,,,,,,,,,,,,,,106,001,2021_Sep_28_1444,joplin1,2021.2.3,59.99088138643422,
_train_cond.csv,0 1 1 1 1 1 1 1 1 0,8,categoryA,f,,,0,7,7,6,1,11,25,0,,,,,,,,,,,,,,,,,,,f,1,0.603447750036139,,,,,,,,,,,,,,,,,,,,,,,,,,,,,,,106,001,2021_Sep_28_1444,joplin1,2021.2.3,59.99088138643422,
_train_cond.csv,0 0 1 0 1 1 0 1 0 0,4,categoryB,j,,,0,7,7,6,1,12,26,9,,,,,,,,,,,,,,,,,,,f,0,0.8170725000090897,,,,,,,,,,,,,,,,,,,,,,,,,,,,,,,106,001,2021_Sep_28_1444,joplin1,2021.2.3,59.99088138643422,
_train_cond.csv,1 1 1 0 0 0 0 1 1 1,6,categoryA,f,,,0,7,7,6,1,13,27,3,,,,,,,,,,,,,,,,,,,f,1,0.6460783330257982,,,,,,,,,,,,,,,,,,,,,,,,,,,,,,,106,001,2021_Sep_28_1444,joplin1,2021.2.3,59.99088138643422,
_train_cond.csv,0 0 1 0 1 1 0 1 0 0,4,categoryB,j,,,0,7,7,6,2,0,28,9,,,,,,,,,,,,,,,,,,,j,1,0.8077032499713823,,,,,,,,,,,,,,,,,,,,,,,,,,,,,,,106,001,2021_Sep_28_1444,joplin1,2021.2.3,59.99088138643422,
_train_cond.csv,1 1 0 1 0 0 1 0 1 1,6,categoryA,f,,,0,7,7,6,2,1,29,2,,,,,,,,,,,,,,,,,,,j,0,0.9005382080213167,,,,,,,,,,,,,,,,,,,,,,,,,,,,,,,106,001,2021_Sep_28_1444,joplin1,2021.2.3,59.99088138643422,
_train_cond.csv,1 0 0 0 0 0 0 0 0 1,2,categoryB,j,,,0,7,7,6,2,2,30,7,,,,,,,,,,,,,,,,,,,f,0,0.7429217079770751,,,,,,,,,,,,,,,,,,,,,,,,,,,,,,,106,001,2021_Sep_28_1444,joplin1,2021.2.3,59.99088138643422,
_train_cond.csv,0 1 1 1 1 1 1 1 1 0,8,categoryA,f,,,0,7,7,6,2,3,31,0,,,,,,,,,,,,,,,,,,,j,0,0.29403508303221315,,,,,,,,,,,,,,,,,,,,,,,,,,,,,,,106,001,2021_Sep_28_1444,joplin1,2021.2.3,59.99088138643422,
_train_cond.csv,1 1 1 0 0 0 0 1 1 1,6,categoryA,f,,,0,7,7,6,2,4,32,3,,,,,,,,,,,,,,,,,,,f,1,0.3211661250097677,,,,,,,,,,,,,,,,,,,,,,,,,,,,,,,106,001,2021_Sep_28_1444,joplin1,2021.2.3,59.99088138643422,
_train_cond.csv,0 0 0 1 0 0 1 0 0 0,2,categoryB,j,,,0,7,7,6,2,5,33,11,,,,,,,,,,,,,,,,,,,j,1,0.3206125830183737,,,,,,,,,,,,,,,,,,,,,,,,,,,,,,,106,001,2021_Sep_28_1444,joplin1,2021.2.3,59.99088138643422,
_train_cond.csv,1 1 0 1 1 1 1 0 1 1,8,categoryA,f,,,0,7,7,6,2,6,34,5,,,,,,,,,,,,,,,,,,,j,0,0.6262421249994077,,,,,,,,,,,,,,,,,,,,,,,,,,,,,,,106,001,2021_Sep_28_1444,joplin1,2021.2.3,59.99088138643422,
_train_cond.csv,0 0 1 1 1 1 1 1 0 0,6,categoryA,f,,,0,7,7,6,2,7,35,6,,,,,,,,,,,,,,,,,,,f,1,0.32574945798842236,,,,,,,,,,,,,,,,,,,,,,,,,,,,,,,106,001,2021_Sep_28_1444,joplin1,2021.2.3,59.99088138643422,
_train_cond.csv,1 1 0 0 0 0 0 0 1 1,4,categoryB,j,,,0,7,7,6,2,8,36,13,,,,,,,,,,,,,,,,,,,j,1,0.2528499999898486,,,,,,,,,,,,,,,,,,,,,,,,,,,,,,,106,001,2021_Sep_28_1444,joplin1,2021.2.3,59.99088138643422,
_train_cond.csv,1 0 1 1 1 1 1 1 0 1,8,categoryA,f,,,0,7,7,6,2,9,37,1,,,,,,,,,,,,,,,,,,,f,1,0.22485170798609033,,,,,,,,,,,,,,,,,,,,,,,,,,,,,,,106,001,2021_Sep_28_1444,joplin1,2021.2.3,59.99088138643422,
_train_cond.csv,1 1 1 0 1 1 0 1 1 1,8,categoryA,f,,,0,7,7,6,2,10,38,4,,,,,,,,,,,,,,,,,,,j,0,0.5411934579606168,,,,,,,,,,,,,,,,,,,,,,,,,,,,,,,106,001,2021_Sep_28_1444,joplin1,2021.2.3,59.99088138643422,
_train_cond.csv,0 0 0 1 1 1 1 0 0 0,4,categoryB,j,,,0,7,7,6,2,11,39,10,,,,,,,,,,,,,,,,,,,f,0,0.13228304201038554,,,,,,,,,,,,,,,,,,,,,,,,,,,,,,,106,001,2021_Sep_28_1444,joplin1,2021.2.3,59.99088138643422,
_train_cond.csv,0 0 1 0 0 0 0 1 0 0,2,categoryB,j,,,0,7,7,6,2,12,40,12,,,,,,,,,,,,,,,,,,,j,1,0.4683960829861462,,,,,,,,,,,,,,,,,,,,,,,,,,,,,,,106,001,2021_Sep_28_1444,joplin1,2021.2.3,59.99088138643422,
_train_cond.csv,0 1 0 0 0 0 0 0 1 0,2,categoryB,j,,,0,7,7,6,2,13,41,8,,,,,,,,,,,,,,,,,,,j,1,0.37432487501064315,,,,,,,,,,,,,,,,,,,,,,,,,,,,,,,106,001,2021_Sep_28_1444,joplin1,2021.2.3,59.99088138643422,
_train_cond.csv,,,,,,,0,7,7,6,,,,,,,,,,,,,,,,,,,,,,,,,,space,2.9341799580142833,,,,,,,,,,,,,,,,,,,,,,,,,,,,,106,001,2021_Sep_28_1444,joplin1,2021.2.3,59.99088138643422,
,,,,,,,,,,,,,,,,,,,,,,,,,,,,,,,,,,,,,,q,18.384045125043485,,,,,,,,,,,,,,,,,,,,,,,,,,,106,001,2021_Sep_28_1444,joplin1,2021.2.3,59.99088138643422,
,,,,,,,,,,,,,,,,,,,,,,,,,,,,,,,,,,,,,,,,j,14.024821207975037,,,,,,,,,,,,,,,,,,,,,,,,,106,001,2021_Sep_28_1444,joplin1,2021.2.3,59.99088138643422,
,,,,,,,,,,,,,,,,,,,,,,,,,,,,,,,,,,,,,,,,,,space,5.135441624966916,,,,,,,,,,,,,,,,,,,,,,,106,001,2021_Sep_28_1444,joplin1,2021.2.3,59.99088138643422,
,,,,,,,,,,,,,,,,,,,,,,,,,,,,,,,,,,,,,,,,,,,,space,1.0068270419724286,,,,,,,,,,,,,,,,,,,,,106,001,2021_Sep_28_1444,joplin1,2021.2.3,59.99088138643422,
,0 0 0 1 0 0 1 0 0 0,2,categoryB,j,genfile2.csv,1,,,,,,,,,0,0,0,1,0,0,0,13,,,,,,,,,,,,,,,,,,,,,,,,j,1,0.9359211249975488,,,,,,,,,,,,,,,,,,106,001,2021_Sep_28_1444,joplin1,2021.2.3,59.99088138643422,
,0 1 0 0 0 1 0 1 0 0,3,categoryB,j,genfile2.csv,0,,,,,,,,,0,0,0,1,0,1,1,41,,,,,,,,,,,,,,,,,,,,,,,,f,0,0.49448833300266415,,,,,,,,,,,,,,,,,,106,001,2021_Sep_28_1444,joplin1,2021.2.3,59.99088138643422,
,1 0 1 1 0 0 0 0 1 0,4,categoryB,j,genfile2.csv,0,,,,,,,,,0,0,0,1,0,2,2,36,,,,,,,,,,,,,,,,,,,,,,,,j,1,1.2052120000007562,,,,,,,,,,,,,,,,,,106,001,2021_Sep_28_1444,joplin1,2021.2.3,59.99088138643422,
,0 0 1 0 0 1 0 0 1 1,4,categoryB,j,genfile2.csv,0,,,,,,,,,0,0,0,1,0,3,3,39,,,,,,,,,,,,,,,,,,,,,,,,j,1,0.7537537919706665,,,,,,,,,,,,,,,,,,106,001,2021_Sep_28_1444,joplin1,2021.2.3,59.99088138643422,
,0 0 1 1 1 1 1 0 0 1,6,categoryA,f,genfile2.csv,0,,,,,,,,,0,0,0,1,0,4,4,31,,,,,,,,,,,,,,,,,,,,,,,,f,1,0.38370175001909956,,,,,,,,,,,,,,,,,,106,001,2021_Sep_28_1444,joplin1,2021.2.3,59.99088138643422,
,0 1 0 1 0 0 0 0 0 0,2,categoryB,j,genfile2.csv,0,,,,,,,,,0,0,0,1,0,5,5,49,,,,,,,,,,,,,,,,,,,,,,,,j,1,0.7152750829700381,,,,,,,,,,,,,,,,,,106,001,2021_Sep_28_1444,joplin1,2021.2.3,59.99088138643422,
,1 1 1 0 0 0 0 1 1 1,6,categoryA,f,genfile2.csv,1,,,,,,,,,0,0,0,1,0,6,6,5,,,,,,,,,,,,,,,,,,,,,,,,j,0,0.2694198329700157,,,,,,,,,,,,,,,,,,106,001,2021_Sep_28_1444,joplin1,2021.2.3,59.99088138643422,
,1 0 0 0 0 0 0 0 0 0,1,categoryB,j,genfile2.csv,0,,,,,,,,,0,0,0,1,0,7,7,54,,,,,,,,,,,,,,,,,,,,,,,,j,1,0.8956253749784082,,,,,,,,,,,,,,,,,,106,001,2021_Sep_28_1444,joplin1,2021.2.3,59.99088138643422,
,0 0 0 0 0 1 0 0 0 0,1,categoryB,j,genfile2.csv,0,,,,,,,,,0,0,0,1,0,8,8,51,,,,,,,,,,,,,,,,,,,,,,,,j,1,0.311131291964557,,,,,,,,,,,,,,,,,,106,001,2021_Sep_28_1444,joplin1,2021.2.3,59.99088138643422,
,0 1 0 0 0 0 0 0 1 1,3,categoryB,j,genfile2.csv,0,,,,,,,,,0,0,0,1,0,9,9,42,,,,,,,,,,,,,,,,,,,,,,,,j,1,0.424268500006292,,,,,,,,,,,,,,,,,,106,001,2021_Sep_28_1444,joplin1,2021.2.3,59.99088138643422,
,1 1 0 1 1 1 1 0 0 1,7,categoryA,f,genfile2.csv,0,,,,,,,,,0,0,0,1,0,10,10,29,,,,,,,,,,,,,,,,,,,,,,,,f,1,0.35516008298145607,,,,,,,,,,,,,,,,,,106,001,2021_Sep_28_1444,joplin1,2021.2.3,59.99088138643422,
,1 1 1 1 1 0 1 1 0 0,7,categoryA,f,genfile2.csv,0,,,,,,,,,0,0,0,1,0,11,11,30,,,,,,,,,,,,,,,,,,,,,,,,f,1,0.567978416045662,,,,,,,,,,,,,,,,,,106,001,2021_Sep_28_1444,joplin1,2021.2.3,59.99088138643422,
,1 0 0 0 0 1 1 1 1 1,6,categoryA,f,genfile2.csv,0,,,,,,,,,0,0,0,1,0,12,12,33,,,,,,,,,,,,,,,,,,,,,,,,j,0,0.3276180830434896,,,,,,,,,,,,,,,,,,106,001,2021_Sep_28_1444,joplin1,2021.2.3,59.99088138643422,
,1 1 1 1 1 1 0 1 1 1,9,categoryA,f,genfile2.csv,0,,,,,,,,,0,0,0,1,0,13,13,18,,,,,,,,,,,,,,,,,,,,,,,,f,1,0.6703387919696979,,,,,,,,,,,,,,,,,,106,001,2021_Sep_28_1444,joplin1,2021.2.3,59.99088138643422,
,1 0 0 0 0 0 0 0 0 1,2,categoryB,j,genfile2.csv,1,,,,,,,,,0,0,0,1,0,14,14,9,,,,,,,,,,,,,,,,,,,,,,,,j,1,0.2178785419673659,,,,,,,,,,,,,,,,,,106,001,2021_Sep_28_1444,joplin1,2021.2.3,59.99088138643422,
,1 1 1 1 0 1 0 1 0 1,7,categoryA,f,genfile2.csv,0,,,,,,,,,0,0,0,1,0,15,15,27,,,,,,,,,,,,,,,,,,,,,,,,f,1,0.3025612080236897,,,,,,,,,,,,,,,,,,106,001,2021_Sep_28_1444,joplin1,2021.2.3,59.99088138643422,
,1 0 1 1 1 1 1 1 0 1,8,categoryA,f,genfile2.csv,1,,,,,,,,,0,0,0,1,0,16,16,3,,,,,,,,,,,,,,,,,,,,,,,,f,1,0.3099741250043735,,,,,,,,,,,,,,,,,,106,001,2021_Sep_28_1444,joplin1,2021.2.3,59.99088138643422,
,1 1 0 1 0 0 1 0 1 1,6,categoryA,f,genfile2.csv,1,,,,,,,,,0,0,0,1,0,17,17,4,,,,,,,,,,,,,,,,,,,,,,,,f,1,0.24851991597097367,,,,,,,,,,,,,,,,,,106,001,2021_Sep_28_1444,joplin1,2021.2.3,59.99088138643422,
,0 0 1 0 0 0 0 0 0 1,2,categoryB,j,genfile2.csv,0,,,,,,,,,0,0,0,1,0,18,18,47,,,,,,,,,,,,,,,,,,,,,,,,j,1,1.1457260419847444,,,,,,,,,,,,,,,,,,106,001,2021_Sep_28_1444,joplin1,2021.2.3,59.99088138643422,
,1 1 1 1 1 0 1 1 1 1,9,categoryA,f,genfile2.csv,0,,,,,,,,,0,0,0,1,0,19,19,17,,,,,,,,,,,,,,,,,,,,,,,,f,1,0.5209637500229292,,,,,,,,,,,,,,,,,,106,001,2021_Sep_28_1444,joplin1,2021.2.3,59.99088138643422,
,0 0 0 0 0 0 0 1 0 0,1,categoryB,j,genfile2.csv,0,,,,,,,,,0,0,0,1,0,20,20,53,,,,,,,,,,,,,,,,,,,,,,,,j,1,0.27105704200221226,,,,,,,,,,,,,,,,,,106,001,2021_Sep_28_1444,joplin1,2021.2.3,59.99088138643422,
,1 1 0 0 0 0 0 0 1 1,4,categoryB,j,genfile2.csv,1,,,,,,,,,0,0,0,1,0,21,21,15,,,,,,,,,,,,,,,,,,,,,,,,j,1,0.32936754199909046,,,,,,,,,,,,,,,,,,106,001,2021_Sep_28_1444,joplin1,2021.2.3,59.99088138643422,
,0 0 1 1 1 0 0 1 0 0,4,categoryB,j,genfile2.csv,0,,,,,,,,,0,0,0,1,0,22,22,37,,,,,,,,,,,,,,,,,,,,,,,,f,0,0.5587475410429761,,,,,,,,,,,,,,,,,,106,001,2021_Sep_28_1444,joplin1,2021.2.3,59.99088138643422,
,0 1 1 0 0 1 0 1 0 0,4,categoryB,j,genfile2.csv,0,,,,,,,,,0,0,0,1,0,23,23,38,,,,,,,,,,,,,,,,,,,,,,,,j,1,0.3069906669552438,,,,,,,,,,,,,,,,,,106,001,2021_Sep_28_1444,joplin1,2021.2.3,59.99088138643422,
,0 0 0 0 0 0 1 0 0 1,2,categoryB,j,genfile2.csv,0,,,,,,,,,0,0,0,1,0,24,24,48,,,,,,,,,,,,,,,,,,,,,,,,j,1,0.20924095797818154,,,,,,,,,,,,,,,,,,106,001,2021_Sep_28_1444,joplin1,2021.2.3,59.99088138643422,
,1 1 1 0 0 1 0 1 1 0,6,categoryA,f,genfile2.csv,0,,,,,,,,,0,0,0,1,0,25,25,32,,,,,,,,,,,,,,,,,,,,,,,,j,0,0.1978804999962449,,,,,,,,,,,,,,,,,,106,001,2021_Sep_28_1444,joplin1,2021.2.3,59.99088138643422,
,1 1 1 1 1 0 1 0 1 1,8,categoryA,f,genfile2.csv,0,,,,,,,,,0,0,0,1,0,26,26,25,,,,,,,,,,,,,,,,,,,,,,,,f,1,0.6660527919884771,,,,,,,,,,,,,,,,,,106,001,2021_Sep_28_1444,joplin1,2021.2.3,59.99088138643422,
,0 1 1 1 1 1 1 1 1 0,8,categoryA,f,genfile2.csv,1,,,,,,,,,0,0,0,1,0,27,27,2,,,,,,,,,,,,,,,,,,,,,,,,f,1,0.694160874991212,,,,,,,,,,,,,,,,,,106,001,2021_Sep_28_1444,joplin1,2021.2.3,59.99088138643422,
,1 1 0 1 1 1 1 0 1 1,8,categoryA,f,genfile2.csv,1,,,,,,,,,0,0,0,1,0,28,28,7,,,,,,,,,,,,,,,,,,,,,,,,f,1,1.2240229999879375,,,,,,,,,,,,,,,,,,106,001,2021_Sep_28_1444,joplin1,2021.2.3,59.99088138643422,
,1 1 1 0 1 1 0 1 1 1,8,categoryA,f,genfile2.csv,1,,,,,,,,,0,0,0,1,0,29,29,6,,,,,,,,,,,,,,,,,,,,,,,,j,0,0.30099204200087115,,,,,,,,,,,,,,,,,,106,001,2021_Sep_28_1444,joplin1,2021.2.3,59.99088138643422,
,0 0 1 0 0 0 0 0 0 0,1,categoryB,j,genfile2.csv,0,,,,,,,,,0,0,0,1,0,30,30,55,,,,,,,,,,,,,,,,,,,,,,,,j,1,0.41219862503930926,,,,,,,,,,,,,,,,,,106,001,2021_Sep_28_1444,joplin1,2021.2.3,59.99088138643422,
,0 1 1 1 0 1 1 1 1 1,8,categoryA,f,genfile2.csv,0,,,,,,,,,0,0,0,1,0,31,31,23,,,,,,,,,,,,,,,,,,,,,,,,f,1,0.1690075839869678,,,,,,,,,,,,,,,,,,106,001,2021_Sep_28_1444,joplin1,2021.2.3,59.99088138643422,
,1 1 1 1 1 1 1 0 1 1,9,categoryA,f,genfile2.csv,0,,,,,,,,,0,0,0,1,0,32,32,19,,,,,,,,,,,,,,,,,,,,,,,,f,1,0.30182345799403265,,,,,,,,,,,,,,,,,,106,001,2021_Sep_28_1444,joplin1,2021.2.3,59.99088138643422,
,0 0 0 1 1 1 1 0 0 0,4,categoryB,j,genfile2.csv,1,,,,,,,,,0,0,0,1,0,33,33,12,,,,,,,,,,,,,,,,,,,,,,,,f,0,0.26379112497670576,,,,,,,,,,,,,,,,,,106,001,2021_Sep_28_1444,joplin1,2021.2.3,59.99088138643422,
,0 1 1 1 0 0 0 0 0 0,3,categoryB,j,genfile2.csv,0,,,,,,,,,0,0,0,1,0,34,34,43,,,,,,,,,,,,,,,,,,,,,,,,f,0,0.48951945803128183,,,,,,,,,,,,,,,,,,106,001,2021_Sep_28_1444,joplin1,2021.2.3,59.99088138643422,
,0 0 0 0 0 0 0 0 1 1,2,categoryB,j,genfile2.csv,0,,,,,,,,,0,0,0,1,0,35,35,50,,,,,,,,,,,,,,,,,,,,,,,,j,1,0.26613191701471806,,,,,,,,,,,,,,,,,,106,001,2021_Sep_28_1444,joplin1,2021.2.3,59.99088138643422,
,0 0 0 1 0 0 0 0 0 0,1,categoryB,j,genfile2.csv,0,,,,,,,,,0,0,0,1,0,36,36,52,,,,,,,,,,,,,,,,,,,,,,,,f,0,0.6056701659690589,,,,,,,,,,,,,,,,,,106,001,2021_Sep_28_1444,joplin1,2021.2.3,59.99088138643422,
,1 1 1 1 1 1 1 1 1 1,10,categoryA,f,genfile2.csv,0,,,,,,,,,0,0,0,1,0,37,37,1,,,,,,,,,,,,,,,,,,,,,,,,f,1,0.2888545000459999,,,,,,,,,,,,,,,,,,106,001,2021_Sep_28_1444,joplin1,2021.2.3,59.99088138643422,
,1 1 1 1 0 1 1 1 1 1,9,categoryA,f,genfile2.csv,0,,,,,,,,,0,0,0,1,0,38,38,20,,,,,,,,,,,,,,,,,,,,,,,,f,1,1.6581964579527266,,,,,,,,,,,,,,,,,,106,001,2021_Sep_28_1444,joplin1,2021.2.3,59.99088138643422,
,1 1 0 1 1 1 0 0 1 1,7,categoryA,f,genfile2.csv,0,,,,,,,,,0,0,0,1,0,39,39,28,,,,,,,,,,,,,,,,,,,,,,,,f,1,0.3076772089698352,,,,,,,,,,,,,,,,,,106,001,2021_Sep_28_1444,joplin1,2021.2.3,59.99088138643422,
,0 0 1 0 1 1 0 1 0 0,4,categoryB,j,genfile2.csv,1,,,,,,,,,0,0,0,1,0,40,40,11,,,,,,,,,,,,,,,,,,,,,,,,j,1,0.25346170796547085,,,,,,,,,,,,,,,,,,106,001,2021_Sep_28_1444,joplin1,2021.2.3,59.99088138643422,
,0 1 1 1 0 1 0 1 1 0,6,categoryA,f,genfile2.csv,0,,,,,,,,,0,0,0,1,0,41,41,35,,,,,,,,,,,,,,,,,,,,,,,,j,0,0.43917512497864664,,,,,,,,,,,,,,,,,,106,001,2021_Sep_28_1444,joplin1,2021.2.3,59.99088138643422,
,0 1 0 0 0 0 0 0 1 0,2,categoryB,j,genfile2.csv,1,,,,,,,,,0,0,0,1,0,42,42,10,,,,,,,,,,,,,,,,,,,,,,,,j,1,0.7941108749946579,,,,,,,,,,,,,,,,,,106,001,2021_Sep_28_1444,joplin1,2021.2.3,59.99088138643422,
,1 0 1 1 1 0 1 0 1 1,7,categoryA,f,genfile2.csv,0,,,,,,,,,0,0,0,1,0,43,43,26,,,,,,,,,,,,,,,,,,,,,,,,f,1,0.280342957994435,,,,,,,,,,,,,,,,,,106,001,2021_Sep_28_1444,joplin1,2021.2.3,59.99088138643422,
,0 0 1 0 0 0 0 0 1 0,2,categoryB,j,genfile2.csv,0,,,,,,,,,0,0,0,1,0,44,44,46,,,,,,,,,,,,,,,,,,,,,,,,j,1,0.249513459042646,,,,,,,,,,,,,,,,,,106,001,2021_Sep_28_1444,joplin1,2021.2.3,59.99088138643422,
,0 0 1 0 0 0 0 1 0 0,2,categoryB,j,genfile2.csv,1,,,,,,,,,0,0,0,1,0,45,45,14,,,,,,,,,,,,,,,,,,,,,,,,j,1,0.33424324996303767,,,,,,,,,,,,,,,,,,106,001,2021_Sep_28_1444,joplin1,2021.2.3,59.99088138643422,
,0 1 1 1 1 1 1 1 1 1,9,categoryA,f,genfile2.csv,0,,,,,,,,,0,0,0,1,0,46,46,16,,,,,,,,,,,,,,,,,,,,,,,,f,1,0.6285474160104059,,,,,,,,,,,,,,,,,,106,001,2021_Sep_28_1444,joplin1,2021.2.3,59.99088138643422,
,0 1 1 1 0 1 0 0 1 1,6,categoryA,f,genfile2.csv,0,,,,,,,,,0,0,0,1,0,47,47,34,,,,,,,,,,,,,,,,,,,,,,,,f,1,0.4315262499731034,,,,,,,,,,,,,,,,,,106,001,2021_Sep_28_1444,joplin1,2021.2.3,59.99088138643422,
,1 0 0 0 0 0 1 0 1 0,3,categoryB,j,genfile2.csv,0,,,,,,,,,0,0,0,1,0,48,48,44,,,,,,,,,,,,,,,,,,,,,,,,j,1,0.1687575419782661,,,,,,,,,,,,,,,,,,106,001,2021_Sep_28_1444,joplin1,2021.2.3,59.99088138643422,
,0 1 1 0 0 0 0 0 1 1,4,categoryB,j,genfile2.csv,0,,,,,,,,,0,0,0,1,0,49,49,40,,,,,,,,,,,,,,,,,,,,,,,,j,1,0.3627148749656044,,,,,,,,,,,,,,,,,,106,001,2021_Sep_28_1444,joplin1,2021.2.3,59.99088138643422,
,0 0 1 1 1 1 1 1 0 0,6,categoryA,f,genfile2.csv,1,,,,,,,,,0,0,0,1,0,50,50,8,,,,,,,,,,,,,,,,,,,,,,,,f,1,0.22580754198133945,,,,,,,,,,,,,,,,,,106,001,2021_Sep_28_1444,joplin1,2021.2.3,59.99088138643422,
,1 1 0 0 1 1 1 1 1 1,8,categoryA,f,genfile2.csv,0,,,,,,,,,0,0,0,1,0,51,51,21,,,,,,,,,,,,,,,,,,,,,,,,j,0,1.2290220420109108,,,,,,,,,,,,,,,,,,106,001,2021_Sep_28_1444,joplin1,2021.2.3,59.99088138643422,
,1 1 1 0 0 1 1 1 1 1,8,categoryA,f,genfile2.csv,0,,,,,,,,,0,0,0,1,0,52,52,22,,,,,,,,,,,,,,,,,,,,,,,,j,0,0.2077362920390442,,,,,,,,,,,,,,,,,,106,001,2021_Sep_28_1444,joplin1,2021.2.3,59.99088138643422,
,0 0 0 0 0 0 0 0 0 0,0,categoryB,j,genfile2.csv,0,,,,,,,,,0,0,0,1,0,53,53,0,,,,,,,,,,,,,,,,,,,,,,,,j,1,0.5729111669934355,,,,,,,,,,,,,,,,,,106,001,2021_Sep_28_1444,joplin1,2021.2.3,59.99088138643422,
,0 1 0 0 0 0 1 0 0 1,3,categoryB,j,genfile2.csv,0,,,,,,,,,0,0,0,1,0,54,54,45,,,,,,,,,,,,,,,,,,,,,,,,j,1,0.25760700000682846,,,,,,,,,,,,,,,,,,106,001,2021_Sep_28_1444,joplin1,2021.2.3,59.99088138643422,
,1 1 1 1 0 1 1 1 0 1,8,categoryA,f,genfile2.csv,0,,,,,,,,,0,0,0,1,0,55,55,24,,,,,,,,,,,,,,,,,,,,,,,,f,1,0.07584954099729657,,,,,,,,,,,,,,,,,,106,001,2021_Sep_28_1444,joplin1,2021.2.3,59.99088138643422,
,,,,,genfile2.csv,,,,,,,,,,0,0,0,1,,,,,,,,,,,,,,,,,,space,53.75180999998702,,,,,,,,,,,,,,,,,,,,,,,,,,,,,106,001,2021_Sep_28_1444,joplin1,2021.2.3,59.99088138643422,
,1 0 1 0 0 0 0 0 0 0,2,categoryB,j,genfile1.csv,0,,,,,,,,,0,1,1,0,0,0,0,47,,,,,,,,,,,,,,,,,,,,,,,,j,1,0.5282629590365104,,,,,,,,,,,,,,,,,,106,001,2021_Sep_28_1444,joplin1,2021.2.3,59.99088138643422,
,0 1 0 0 1 0 0 1 1 0,4,categoryB,j,genfile1.csv,0,,,,,,,,,0,1,1,0,0,1,1,37,,,,,,,,,,,,,,,,,,,,,,,,j,1,0.214927583001554,,,,,,,,,,,,,,,,,,106,001,2021_Sep_28_1444,joplin1,2021.2.3,59.99088138643422,
,1 1 0 0 0 0 0 0 0 0,2,categoryB,j,genfile1.csv,0,,,,,,,,,0,1,1,0,0,2,2,46,,,,,,,,,,,,,,,,,,,,,,,,j,1,0.3470981669961475,,,,,,,,,,,,,,,,,,106,001,2021_Sep_28_1444,joplin1,2021.2.3,59.99088138643422,
,0 1 0 0 1 1 0 0 1 0,4,categoryB,j,genfile1.csv,0,,,,,,,,,0,1,1,0,0,3,3,40,,,,,,,,,,,,,,,,,,,,,,,,j,1,0.3774004590231925,,,,,,,,,,,,,,,,,,106,001,2021_Sep_28_1444,joplin1,2021.2.3,59.99088138643422,
,0 0 0 1 0 0 1 0 0 0,2,categoryB,j,genfile1.csv,1,,,,,,,,,0,1,1,0,0,4,4,13,,,,,,,,,,,,,,,,,,,,,,,,f,0,1.344348250015173,,,,,,,,,,,,,,,,,,106,001,2021_Sep_28_1444,joplin1,2021.2.3,59.99088138643422,
,1 1 1 1 1 1 1 1 1 1,10,categoryA,f,genfile1.csv,0,,,,,,,,,0,1,1,0,0,5,5,1,,,,,,,,,,,,,,,,,,,,,,,,f,1,0.70211733301403,,,,,,,,,,,,,,,,,,106,001,2021_Sep_28_1444,joplin1,2021.2.3,59.99088138643422,
,0 1 1 0 0 0 0 0 1 0,3,categoryB,j,genfile1.csv,0,,,,,,,,,0,1,1,0,0,6,6,42,,,,,,,,,,,,,,,,,,,,,,,,f,0,1.9145817919634283,,,,,,,,,,,,,,,,,,106,001,2021_Sep_28_1444,joplin1,2021.2.3,59.99088138643422,
,1 1 1 0 1 1 1 1 1 0,8,categoryA,f,genfile1.csv,0,,,,,,,,,0,1,1,0,0,7,7,22,,,,,,,,,,,,,,,,,,,,,,,,j,0,0.2682557500083931,,,,,,,,,,,,,,,,,,106,001,2021_Sep_28_1444,joplin1,2021.2.3,59.99088138643422,
,1 0 1 1 0 0 0 0 0 0,3,categoryB,j,genfile1.csv,0,,,,,,,,,0,1,1,0,0,8,8,41,,,,,,,,,,,,,,,,,,,,,,,,f,0,0.07762799999909475,,,,,,,,,,,,,,,,,,106,001,2021_Sep_28_1444,joplin1,2021.2.3,59.99088138643422,
,0 1 0 0 0 0 0 0 1 0,2,categoryB,j,genfile1.csv,1,,,,,,,,,0,1,1,0,0,9,9,10,,,,,,,,,,,,,,,,,,,,,,,,j,1,0.4003000420052558,,,,,,,,,,,,,,,,,,106,001,2021_Sep_28_1444,joplin1,2021.2.3,59.99088138643422,
,0 0 0 1 0 0 0 0 0 1,2,categoryB,j,genfile1.csv,0,,,,,,,,,0,1,1,0,0,10,10,50,,,,,,,,,,,,,,,,,,,,,,,,f,0,0.48451162496348843,,,,,,,,,,,,,,,,,,106,001,2021_Sep_28_1444,joplin1,2021.2.3,59.99088138643422,
,1 0 1 0 1 1 0 1 1 0,6,categoryA,f,genfile1.csv,0,,,,,,,,,0,1,1,0,0,11,11,33,,,,,,,,,,,,,,,,,,,,,,,,j,0,0.49227795796468854,,,,,,,,,,,,,,,,,,106,001,2021_Sep_28_1444,joplin1,2021.2.3,59.99088138643422,
,1 1 1 1 1 0 1 0 1 0,7,categoryA,f,genfile1.csv,0,,,,,,,,,0,1,1,0,0,12,12,27,,,,,,,,,,,,,,,,,,,,,,,,f,1,0.2846653329906985,,,,,,,,,,,,,,,,,,106,001,2021_Sep_28_1444,joplin1,2021.2.3,59.99088138643422,
,0 0 1 0 0 0 0 1 0 0,2,categoryB,j,genfile1.csv,1,,,,,,,,,0,1,1,0,0,13,13,14,,,,,,,,,,,,,,,,,,,,,,,,j,1,0.17563424998661503,,,,,,,,,,,,,,,,,,106,001,2021_Sep_28_1444,joplin1,2021.2.3,59.99088138643422,
,1 0 0 0 0 0 0 0 0 1,2,categoryB,j,genfile1.csv,1,,,,,,,,,0,1,1,0,0,14,14,9,,,,,,,,,,,,,,,,,,,,,,,,j,1,0.11144308297662064,,,,,,,,,,,,,,,,,,106,001,2021_Sep_28_1444,joplin1,2021.2.3,59.99088138643422,
,0 0 0 0 1 0 0 0 0 0,1,categoryB,j,genfile1.csv,0,,,,,,,,,0,1,1,0,0,15,15,55,,,,,,,,,,,,,,,,,,,,,,,,j,1,0.14234608301194385,,,,,,,,,,,,,,,,,,106,001,2021_Sep_28_1444,joplin1,2021.2.3,59.99088138643422,
,1 0 0 0 1 0 1 0 1 0,4,categoryB,j,genfile1.csv,0,,,,,,,,,0,1,1,0,0,16,16,39,,,,,,,,,,,,,,,,,,,,,,,,j,1,0.1559232500148937,,,,,,,,,,,,,,,,,,106,001,2021_Sep_28_1444,joplin1,2021.2.3,59.99088138643422,
,0 1 0 1 0 0 0 0 1 0,3,categoryB,j,genfile1.csv,0,,,,,,,,,0,1,1,0,0,17,17,43,,,,,,,,,,,,,,,,,,,,,,,,f,0,0.425284625031054,,,,,,,,,,,,,,,,,,106,001,2021_Sep_28_1444,joplin1,2021.2.3,59.99088138643422,
,0 1 0 0 0 0 0 0 0 0,1,categoryB,j,genfile1.csv,0,,,,,,,,,0,1,1,0,0,18,18,54,,,,,,,,,,,,,,,,,,,,,,,,j,1,0.10850587498862296,,,,,,,,,,,,,,,,,,106,001,2021_Sep_28_1444,joplin1,2021.2.3,59.99088138643422,
,0 1 1 1 1 1 1 0 1 0,7,categoryA,f,genfile1.csv,0,,,,,,,,,0,1,1,0,0,19,19,28,,,,,,,,,,,,,,,,,,,,,,,,f,1,0.23600125004304573,,,,,,,,,,,,,,,,,,106,001,2021_Sep_28_1444,joplin1,2021.2.3,59.99088138643422,
,0 0 0 0 0 0 0 0 0 1,1,categoryB,j,genfile1.csv,0,,,,,,,,,0,1,1,0,0,20,20,52,,,,,,,,,,,,,,,,,,,,,,,,j,1,0.3751615000073798,,,,,,,,,,,,,,,,,,106,001,2021_Sep_28_1444,joplin1,2021.2.3,59.99088138643422,
,1 1 1 0 1 1 0 1 1 1,8,categoryA,f,genfile1.csv,1,,,,,,,,,0,1,1,0,0,21,21,6,,,,,,,,,,,,,,,,,,,,,,,,j,0,0.6385813750093803,,,,,,,,,,,,,,,,,,106,001,2021_Sep_28_1444,joplin1,2021.2.3,59.99088138643422,
,1 1 1 1 0 0 1 1 1 1,8,categoryA,f,genfile1.csv,0,,,,,,,,,0,1,1,0,0,22,22,25,,,,,,,,,,,,,,,,,,,,,,,,f,1,0.14424137497553602,,,,,,,,,,,,,,,,,,106,001,2021_Sep_28_1444,joplin1,2021.2.3,59.99088138643422,
,1 1 1 1 0 1 1 1 1 0,8,categoryA,f,genfile1.csv,0,,,,,,,,,0,1,1,0,0,23,23,21,,,,,,,,,,,,,,,,,,,,,,,,f,1,0.3277102910215035,,,,,,,,,,,,,,,,,,106,001,2021_Sep_28_1444,joplin1,2021.2.3,59.99088138643422,
,1 1 0 1 1 1 1 0 1 1,8,categoryA,f,genfile1.csv,1,,,,,,,,,0,1,1,0,0,24,24,7,,,,,,,,,,,,,,,,,,,,,,,,f,1,0.1454391249571927,,,,,,,,,,,,,,,,,,106,001,2021_Sep_28_1444,joplin1,2021.2.3,59.99088138643422,
,1 1 0 0 1 1 0 1 1 0,6,categoryA,f,genfile1.csv,0,,,,,,,,,0,1,1,0,0,25,25,34,,,,,,,,,,,,,,,,,,,,,,,,j,0,0.15161350002745166,,,,,,,,,,,,,,,,,,106,001,2021_Sep_28_1444,joplin1,2021.2.3,59.99088138643422,
,1 1 0 0 0 0 0 0 1 1,4,categoryB,j,genfile1.csv,1,,,,,,,,,0,1,1,0,0,26,26,15,,,,,,,,,,,,,,,,,,,,,,,,j,1,0.1191419170354493,,,,,,,,,,,,,,,,,,106,001,2021_Sep_28_1444,joplin1,2021.2.3,59.99088138643422,
,0 1 1 1 1 1 1 0 1 1,8,categoryA,f,genfile1.csv,0,,,,,,,,,0,1,1,0,0,27,27,23,,,,,,,,,,,,,,,,,,,,,,,,f,1,0.14225966698722914,,,,,,,,,,,,,,,,,,106,001,2021_Sep_28_1444,joplin1,2021.2.3,59.99088138643422,
,1 1 1 1 1 1 1 1 0 1,9,categoryA,f,genfile1.csv,0,,,,,,,,,0,1,1,0,0,28,28,18,,,,,,,,,,,,,,,,,,,,,,,,f,1,0.044318332977127284,,,,,,,,,,,,,,,,,,106,001,2021_Sep_28_1444,joplin1,2021.2.3,59.99088138643422,
,1 1 1 1 1 1 1 1 1 0,9,categoryA,f,genfile1.csv,0,,,,,,,,,0,1,1,0,0,29,29,20,,,,,,,,,,,,,,,,,,,,,,,,f,1,0.23275908298091963,,,,,,,,,,,,,,,,,,106,001,2021_Sep_28_1444,joplin1,2021.2.3,59.99088138643422,
,1 1 1 0 0 0 0 1 1 1,6,categoryA,f,genfile1.csv,1,,,,,,,,,0,1,1,0,0,30,30,5,,,,,,,,,,,,,,,,,,,,,,,,j,0,0.5811361250234768,,,,,,,,,,,,,,,,,,106,001,2021_Sep_28_1444,joplin1,2021.2.3,59.99088138643422,
,0 0 0 0 0 0 1 0 0 0,1,categoryB,j,genfile1.csv,0,,,,,,,,,0,1,1,0,0,31,31,53,,,,,,,,,,,,,,,,,,,,,,,,j,1,0.2916678750189021,,,,,,,,,,,,,,,,,,106,001,2021_Sep_28_1444,joplin1,2021.2.3,59.99088138643422,
,0 0 0 0 0 0 0 0 1 0,1,categoryB,j,genfile1.csv,0,,,,,,,,,0,1,1,0,0,32,32,51,,,,,,,,,,,,,,,,,,,,,,,,j,1,0.22679045796394348,,,,,,,,,,,,,,,,,,106,001,2021_Sep_28_1444,joplin1,2021.2.3,59.99088138643422,
,1 0 1 1 1 1 1 1 0 1,8,categoryA,f,genfile1.csv,1,,,,,,,,,0,1,1,0,0,33,33,3,,,,,,,,,,,,,,,,,,,,,,,,f,1,0.1517285000300035,,,,,,,,,,,,,,,,,,106,001,2021_Sep_28_1444,joplin1,2021.2.3,59.99088138643422,
,0 0 0 0 0 0 0 0 0 0,0,categoryB,j,genfile1.csv,0,,,,,,,,,0,1,1,0,0,34,34,0,,,,,,,,,,,,,,,,,,,,,,,,j,1,0.10355866700410843,,,,,,,,,,,,,,,,,,106,001,2021_Sep_28_1444,joplin1,2021.2.3,59.99088138643422,
,1 1 0 0 1 1 0 0 1 1,6,categoryA,f,genfile1.csv,0,,,,,,,,,0,1,1,0,0,35,35,35,,,,,,,,,,,,,,,,,,,,,,,,j,0,0.22087079100310802,,,,,,,,,,,,,,,,,,106,001,2021_Sep_28_1444,joplin1,2021.2.3,59.99088138643422,
,1 0 1 0 1 1 0 0 0 0,4,categoryB,j,genfile1.csv,0,,,,,,,,,0,1,1,0,0,36,36,38,,,,,,,,,,,,,,,,,,,,,,,,j,1,0.21603458299068734,,,,,,,,,,,,,,,,,,106,001,2021_Sep_28_1444,joplin1,2021.2.3,59.99088138643422,
,1 1 1 0 0 1 1 1 0 0,6,categoryA,f,genfile1.csv,0,,,,,,,,,0,1,1,0,0,37,37,31,,,,,,,,,,,,,,,,,,,,,,,,j,0,0.19544333301018924,,,,,,,,,,,,,,,,,,106,001,2021_Sep_28_1444,joplin1,2021.2.3,59.99088138643422,
,0 1 1 1 0 1 1 1 0 1,7,categoryA,f,genfile1.csv,0,,,,,,,,,0,1,1,0,0,38,38,26,,,,,,,,,,,,,,,,,,,,,,,,f,1,0.2865718340035528,,,,,,,,,,,,,,,,,,106,001,2021_Sep_28_1444,joplin1,2021.2.3,59.99088138643422,
,1 0 1 1 1 0 0 1 1 1,7,categoryA,f,genfile1.csv,0,,,,,,,,,0,1,1,0,0,39,39,30,,,,,,,,,,,,,,,,,,,,,,,,f,1,0.278086542035453,,,,,,,,,,,,,,,,,,106,001,2021_Sep_28_1444,joplin1,2021.2.3,59.99088138643422,
,0 0 1 1 0 0 1 0 1 0,4,categoryB,j,genfile1.csv,0,,,,,,,,,0,1,1,0,0,40,40,36,,,,,,,,,,,,,,,,,,,,,,,,f,0,0.302057082997635,,,,,,,,,,,,,,,,,,106,001,2021_Sep_28_1444,joplin1,2021.2.3,59.99088138643422,
,1 0 1 0 0 0 1 0 0 0,3,categoryB,j,genfile1.csv,0,,,,,,,,,0,1,1,0,0,41,41,44,,,,,,,,,,,,,,,,,,,,,,,,j,1,0.020930250000674278,,,,,,,,,,,,,,,,,,106,001,2021_Sep_28_1444,joplin1,2021.2.3,59.99088138643422,
,1 0 0 1 1 1 1 1 1 1,8,categoryA,f,genfile1.csv,0,,,,,,,,,0,1,1,0,0,42,42,24,,,,,,,,,,,,,,,,,,,,,,,,f,1,0.14462300000013784,,,,,,,,,,,,,,,,,,106,001,2021_Sep_28_1444,joplin1,2021.2.3,59.99088138643422,
,0 0 0 1 1 1 1 0 0 0,4,categoryB,j,genfile1.csv,1,,,,,,,,,0,1,1,0,0,43,43,12,,,,,,,,,,,,,,,,,,,,,,,,f,0,0.24875599995721132,,,,,,,,,,,,,,,,,,106,001,2021_Sep_28_1444,joplin1,2021.2.3,59.99088138643422,
,0 0 1 1 0 0 0 0 0 0,2,categoryB,j,genfile1.csv,0,,,,,,,,,0,1,1,0,0,44,44,48,,,,,,,,,,,,,,,,,,,,,,,,f,0,0.22804258397081867,,,,,,,,,,,,,,,,,,106,001,2021_Sep_28_1444,joplin1,2021.2.3,59.99088138643422,
,0 0 1 1 1 1 1 1 0 0,6,categoryA,f,genfile1.csv,1,,,,,,,,,0,1,1,0,0,45,45,8,,,,,,,,,,,,,,,,,,,,,,,,f,1,0.12960804195608944,,,,,,,,,,,,,,,,,,106,001,2021_Sep_28_1444,joplin1,2021.2.3,59.99088138643422,
,1 0 1 1 1 1 0 1 0 0,6,categoryA,f,genfile1.csv,0,,,,,,,,,0,1,1,0,0,46,46,32,,,,,,,,,,,,,,,,,,,,,,,,f,1,0.09578070801217109,,,,,,,,,,,,,,,,,,106,001,2021_Sep_28_1444,joplin1,2021.2.3,59.99088138643422,
,1 1 1 0 1 1 1 1 1 1,9,categoryA,f,genfile1.csv,0,,,,,,,,,0,1,1,0,0,47,47,17,,,,,,,,,,,,,,,,,,,,,,,,j,0,0.3687408330151811,,,,,,,,,,,,,,,,,,106,001,2021_Sep_28_1444,joplin1,2021.2.3,59.99088138643422,
,0 1 1 1 1 1 1 1 1 0,8,categoryA,f,genfile1.csv,1,,,,,,,,,0,1,1,0,0,48,48,2,,,,,,,,,,,,,,,,,,,,,,,,f,1,0.21662004198879004,,,,,,,,,,,,,,,,,,106,001,2021_Sep_28_1444,joplin1,2021.2.3,59.99088138643422,
,1 0 1 0 1 1 1 0 1 1,7,categoryA,f,genfile1.csv,0,,,,,,,,,0,1,1,0,0,49,49,29,,,,,,,,,,,,,,,,,,,,,,,,j,0,0.2749318749993108,,,,,,,,,,,,,,,,,,106,001,2021_Sep_28_1444,joplin1,2021.2.3,59.99088138643422,
,0 0 1 0 1 0 0 0 1 0,3,categoryB,j,genfile1.csv,0,,,,,,,,,0,1,1,0,0,50,50,45,,,,,,,,,,,,,,,,,,,,,,,,j,1,0.6591501249931753,,,,,,,,,,,,,,,,,,106,001,2021_Sep_28_1444,joplin1,2021.2.3,59.99088138643422,
,1 0 1 1 1 1 1 1 1 1,9,categoryA,f,genfile1.csv,0,,,,,,,,,0,1,1,0,0,51,51,16,,,,,,,,,,,,,,,,,,,,,,,,f,1,0.1252247910015285,,,,,,,,,,,,,,,,,,106,001,2021_Sep_28_1444,joplin1,2021.2.3,59.99088138643422,
,1 1 0 1 1 1 1 1 1 1,9,categoryA,f,genfile1.csv,0,,,,,,,,,0,1,1,0,0,52,52,19,,,,,,,,,,,,,,,,,,,,,,,,f,1,0.4532575420453213,,,,,,,,,,,,,,,,,,106,001,2021_Sep_28_1444,joplin1,2021.2.3,59.99088138643422,
,0 0 1 0 1 1 0 1 0 0,4,categoryB,j,genfile1.csv,1,,,,,,,,,0,1,1,0,0,53,53,11,,,,,,,,,,,,,,,,,,,,,,,,j,1,0.21548137499485165,,,,,,,,,,,,,,,,,,106,001,2021_Sep_28_1444,joplin1,2021.2.3,59.99088138643422,
,0 0 1 0 1 0 0 0 0 0,2,categoryB,j,genfile1.csv,0,,,,,,,,,0,1,1,0,0,54,54,49,,,,,,,,,,,,,,,,,,,,,,,,j,1,0.2286065829684958,,,,,,,,,,,,,,,,,,106,001,2021_Sep_28_1444,joplin1,2021.2.3,59.99088138643422,
,1 1 0 1 0 0 1 0 1 1,6,categoryA,f,genfile1.csv,1,,,,,,,,,0,1,1,0,0,55,55,4,,,,,,,,,,,,,,,,,,,,,,,,f,1,0.1305172079592012,,,,,,,,,,,,,,,,,,106,001,2021_Sep_28_1444,joplin1,2021.2.3,59.99088138643422,
,,,,,genfile1.csv,,,,,,,,,,0,1,1,0,,,,,,,,,,,,,,,,,,space,42.96381070802454,,,,,,,,,,,,,,,,,,,,,,,,,,,,,106,001,2021_Sep_28_1444,joplin1,2021.2.3,59.99088138643422,
,,,,,,,,,,,,,,,,,,,,,,,,,,,,,,,,,,,,,,,,,,,,,,,,,None,,,,,,,,,,,,,,,,,106,001,2021_Sep_28_1444,joplin1,2021.2.3,59.99088138643422,
,,,,,,,,,,,,,,,,,,,,,,,,,,,,,,,,,,,,,,,,,,,,,,,,,,None,,,,,,,,,,,,,,,,106,001,2021_Sep_28_1444,joplin1,2021.2.3,59.99088138643422,
,,,,,,,,,,,,,,,,,,,,,,,,,,,,,,,,,,,,,,,,,,,,,,,,,,,0.7,radio,0.3,Are you Hispanic/Latino?,0,None,None,None,None,,,,,,,106,001,2021_Sep_28_1444,joplin1,2021.2.3,59.99088138643422,
,,,,,,,,,,,,,,,,,,,,,,,,,,,,,,,,,,,,,,,,,,,,,,,,,,,0.7,radio,0.3,Are you an American Indian or Alaska Native?,1,None,None,None,None,,,,,,,106,001,2021_Sep_28_1444,joplin1,2021.2.3,59.99088138643422,
,,,,,,,,,,,,,,,,,,,,,,,,,,,,,,,,,,,,,,,,,,,,,,,,,,,0.7,radio,0.3,Are you Asian?,2,None,None,None,None,,,,,,,106,001,2021_Sep_28_1444,joplin1,2021.2.3,59.99088138643422,
,,,,,,,,,,,,,,,,,,,,,,,,,,,,,,,,,,,,,,,,,,,,,,,,,,,0.7,radio,0.3,Are you Black or African American?,3,None,None,None,None,,,,,,,106,001,2021_Sep_28_1444,joplin1,2021.2.3,59.99088138643422,
,,,,,,,,,,,,,,,,,,,,,,,,,,,,,,,,,,,,,,,,,,,,,,,,,,,0.7,radio,0.3,Are you a Native Hawaiian or other Pacific Islander?,4,None,None,None,None,,,,,,,106,001,2021_Sep_28_1444,joplin1,2021.2.3,59.99088138643422,
,,,,,,,,,,,,,,,,,,,,,,,,,,,,,,,,,,,,,,,,,,,,,,,,,,,0.7,radio,0.3,Are you White?,5,None,None,None,None,,,,,,,106,001,2021_Sep_28_1444,joplin1,2021.2.3,59.99088138643422,
,,,,,,,,,,,,,,,,,,,,,,,,,,,,,,,,,,,,,,,,,,,,,,,,,,,0.85,radio,0.3,"Do you have any history of neurological issues such as stroke, head injury or a neurodegenerative disorder?",6,None,None,None,None,,,,,,,106,001,2021_Sep_28_1444,joplin1,2021.2.3,59.99088138643422,
,,,,,,,,,,,,,,,,,,,,,,,,,,,,,,,,,,,,,,,,,,,,,,,,,,,,,,,,,,,,None,,,,,,106,001,2021_Sep_28_1444,joplin1,2021.2.3,59.99088138643422,
,,,,,,,,,,,,,,,,,,,,,,,,,,,,,,,,,,,,,,,,,,,,,,,,,,,,,,,,,,,,,None,,,,,106,001,2021_Sep_28_1444,joplin1,2021.2.3,59.99088138643422,
,,,,,,,,,,,,,,,,,,,,,,,,,,,,,,,,,,,,,,,,,,,,,,,,,,,,,,,,,,,,,,,,None,,106,001,2021_Sep_28_1444,joplin1,2021.2.3,59.99088138643422,
,,,,,,,,,,,,,,,,,,,,,,,,,,,,,,,,,,,,,,,,,,,,,,,,,,,,,,,,,,,,,,,,,,,,,,,,
