train_set,stim_id,sums_feat,category,correct_key,gen_file,train_item,train_runs.thisRepN,train_runs.thisTrialN,train_runs.thisN,train_runs.thisIndex,train_trials.thisRepN,train_trials.thisTrialN,train_trials.thisN,train_trials.thisIndex,test_runs.thisRepN,test_runs.thisTrialN,test_runs.thisN,test_runs.thisIndex,test_trials.thisRepN,test_trials.thisTrialN,test_trials.thisN,test_trials.thisIndex,welcome_key.keys,welcome_key.rt,welcome_key.started,welcome_key.stopped,train_inst1_key.keys,train_inst1_key.rt,train_inst2_key.keys,train_inst2_key.rt,train_begin_key.keys,train_begin_key.rt,train_key.keys,train_key.corr,train_key.rt,break_key.keys,break_key.rt,key_resp.keys,key_resp.rt,test_inst1_key.keys,test_inst1_key.rt,test_inst2_key.keys,test_inst2_key.rt,test_begin_key.keys,test_begin_key.rt,test_key.keys,test_key.corr,test_key.rt,test_end_key.keys,demo_inst1_key.keys,form.questionWidth,form.type,form.respWidth,form.itemText,form.index,form.font,form.markerColor,form.response,form.rt,form_key.keys,demo_inst2_key.keys,gender_string,age_string,demo4_key.keys,typedWord,participant,session,date,expName,psychopyVersion,frameRate,
,,,,,,,,,,,,,,,,,,,,,,,space,0.5031867500001681,11.978203625003516,None,,,,,,,,,,,,,,,,,,,,,,,,,,,,,,,,,,,,,,,,14,001,2021_Sep_14_1512,joplin1,2021.2.3,59.7138959155982,
,,,,,,,,,,,,,,,,,,,,,,,,,,,j,0.3863555419993645,,,,,,,,,,,,,,,,,,,,,,,,,,,,,,,,,,,,,,14,001,2021_Sep_14_1512,joplin1,2021.2.3,59.7138959155982,
,,,,,,,,,,,,,,,,,,,,,,,,,,,,,space,0.43426104199897964,,,,,,,,,,,,,,,,,,,,,,,,,,,,,,,,,,,,14,001,2021_Sep_14_1512,joplin1,2021.2.3,59.7138959155982,
,,,,,,,,,,,,,,,,,,,,,,,,,,,,,,,space,0.4523410000001604,,,,,,,,,,,,,,,,,,,,,,,,,,,,,,,,,,14,001,2021_Sep_14_1512,joplin1,2021.2.3,59.7138959155982,
_train_cond.csv,1 1 0 0 0 0 0 0 1 1,6,categoryA,f,,,0,0,0,6,0,0,0,6,,,,,,,,,,,,,,,,,,,j,0,0.3341716249997262,,,,,,,,,,,,,,,,,,,,,,,,,,,,,,,14,001,2021_Sep_14_1512,joplin1,2021.2.3,59.7138959155982,
_train_cond.csv,0 0 0 1 1 1 1 0 0 0,6,categoryA,f,,,0,0,0,6,0,1,1,3,,,,,,,,,,,,,,,,,,,f,1,0.38014258300245274,,,,,,,,,,,,,,,,,,,,,,,,,,,,,,,14,001,2021_Sep_14_1512,joplin1,2021.2.3,59.7138959155982,
_train_cond.csv,1 0 0 0 0 0 0 0 0 1,8,categoryA,f,,,0,0,0,6,0,2,2,0,,,,,,,,,,,,,,,,,,,f,1,1.208719458001724,,,,,,,,,,,,,,,,,,,,,,,,,,,,,,,14,001,2021_Sep_14_1512,joplin1,2021.2.3,59.7138959155982,
_train_cond.csv,1 1 0 1 1 1 1 0 1 1,2,categoryB,j,,,0,0,0,6,0,3,3,12,,,,,,,,,,,,,,,,,,,f,0,0.8496421670024574,,,,,,,,,,,,,,,,,,,,,,,,,,,,,,,14,001,2021_Sep_14_1512,joplin1,2021.2.3,59.7138959155982,
_train_cond.csv,0 1 1 1 1 1 1 1 1 0,2,categoryB,j,,,0,0,0,6,0,4,4,7,,,,,,,,,,,,,,,,,,,None,0,,,,,,,,,,,,,,,,,,,,,,,,,,,,,,,,14,001,2021_Sep_14_1512,joplin1,2021.2.3,59.7138959155982,
_train_cond.csv,1 0 1 1 1 1 1 1 0 1,2,categoryB,j,,,0,0,0,6,0,5,5,8,,,,,,,,,,,,,,,,,,,j,1,0.5802013749998878,,,,,,,,,,,,,,,,,,,,,,,,,,,,,,,14,001,2021_Sep_14_1512,joplin1,2021.2.3,59.7138959155982,
_train_cond.csv,0 0 1 0 0 0 0 1 0 0,8,categoryA,f,,,0,0,0,6,0,6,6,5,,,,,,,,,,,,,,,,,,,f,1,1.6694599590009602,,,,,,,,,,,,,,,,,,,,,,,,,,,,,,,14,001,2021_Sep_14_1512,joplin1,2021.2.3,59.7138959155982,
_train_cond.csv,1 1 1 0 1 1 0 1 1 1,2,categoryB,j,,,0,0,0,6,0,7,7,11,,,,,,,,,,,,,,,,,,,j,1,0.9373215419982444,,,,,,,,,,,,,,,,,,,,,,,,,,,,,,,14,001,2021_Sep_14_1512,joplin1,2021.2.3,59.7138959155982,
_train_cond.csv,0 0 1 0 1 1 0 1 0 0,6,categoryA,f,,,0,0,0,6,0,8,8,2,,,,,,,,,,,,,,,,,,,f,1,0.6931696659994486,,,,,,,,,,,,,,,,,,,,,,,,,,,,,,,14,001,2021_Sep_14_1512,joplin1,2021.2.3,59.7138959155982,
_train_cond.csv,1 1 1 0 0 0 0 1 1 1,4,categoryB,j,,,0,0,0,6,0,9,9,10,,,,,,,,,,,,,,,,,,,j,1,1.487772959000722,,,,,,,,,,,,,,,,,,,,,,,,,,,,,,,14,001,2021_Sep_14_1512,joplin1,2021.2.3,59.7138959155982,
_train_cond.csv,0 0 1 1 1 1 1 1 0 0,4,categoryB,j,,,0,0,0,6,0,10,10,13,,,,,,,,,,,,,,,,,,,j,1,0.4986239999998361,,,,,,,,,,,,,,,,,,,,,,,,,,,,,,,14,001,2021_Sep_14_1512,joplin1,2021.2.3,59.7138959155982,
_train_cond.csv,0 0 0 1 0 0 1 0 0 0,8,categoryA,f,,,0,0,0,6,0,11,11,4,,,,,,,,,,,,,,,,,,,f,1,1.2160893330001272,,,,,,,,,,,,,,,,,,,,,,,,,,,,,,,14,001,2021_Sep_14_1512,joplin1,2021.2.3,59.7138959155982,
_train_cond.csv,1 1 0 1 0 0 1 0 1 1,4,categoryB,j,,,0,0,0,6,0,12,12,9,,,,,,,,,,,,,,,,,,,None,0,,,,,,,,,,,,,,,,,,,,,,,,,,,,,,,,14,001,2021_Sep_14_1512,joplin1,2021.2.3,59.7138959155982,
_train_cond.csv,0 1 0 0 0 0 0 0 1 0,8,categoryA,f,,,0,0,0,6,0,13,13,1,,,,,,,,,,,,,,,,,,,f,1,1.5237757499999134,,,,,,,,,,,,,,,,,,,,,,,,,,,,,,,14,001,2021_Sep_14_1512,joplin1,2021.2.3,59.7138959155982,
_train_cond.csv,0 0 0 1 0 0 1 0 0 0,8,categoryA,f,,,0,0,0,6,1,0,14,4,,,,,,,,,,,,,,,,,,,j,0,0.5993139169986534,,,,,,,,,,,,,,,,,,,,,,,,,,,,,,,14,001,2021_Sep_14_1512,joplin1,2021.2.3,59.7138959155982,
_train_cond.csv,1 1 0 1 0 0 1 0 1 1,4,categoryB,j,,,0,0,0,6,1,1,15,9,,,,,,,,,,,,,,,,,,,None,0,,,,,,,,,,,,,,,,,,,,,,,,,,,,,,,,14,001,2021_Sep_14_1512,joplin1,2021.2.3,59.7138959155982,
_train_cond.csv,1 1 0 0 0 0 0 0 1 1,6,categoryA,f,,,0,0,0,6,1,2,16,6,,,,,,,,,,,,,,,,,,,f,1,0.4992798330022197,,,,,,,,,,,,,,,,,,,,,,,,,,,,,,,14,001,2021_Sep_14_1512,joplin1,2021.2.3,59.7138959155982,
_train_cond.csv,0 0 1 0 1 1 0 1 0 0,6,categoryA,f,,,0,0,0,6,1,3,17,2,,,,,,,,,,,,,,,,,,,j,0,0.15979295800207183,,,,,,,,,,,,,,,,,,,,,,,,,,,,,,,14,001,2021_Sep_14_1512,joplin1,2021.2.3,59.7138959155982,
_train_cond.csv,1 0 0 0 0 0 0 0 0 1,8,categoryA,f,,,0,0,0,6,1,4,18,0,,,,,,,,,,,,,,,,,,,f,1,0.27653449999706936,,,,,,,,,,,,,,,,,,,,,,,,,,,,,,,14,001,2021_Sep_14_1512,joplin1,2021.2.3,59.7138959155982,
_train_cond.csv,0 0 1 0 0 0 0 1 0 0,8,categoryA,f,,,0,0,0,6,1,5,19,5,,,,,,,,,,,,,,,,,,,j,0,0.881441375000577,,,,,,,,,,,,,,,,,,,,,,,,,,,,,,,14,001,2021_Sep_14_1512,joplin1,2021.2.3,59.7138959155982,
_train_cond.csv,1 1 1 0 1 1 0 1 1 1,2,categoryB,j,,,0,0,0,6,1,6,20,11,,,,,,,,,,,,,,,,,,,j,1,0.4986671659971762,,,,,,,,,,,,,,,,,,,,,,,,,,,,,,,14,001,2021_Sep_14_1512,joplin1,2021.2.3,59.7138959155982,
_train_cond.csv,1 1 0 1 1 1 1 0 1 1,2,categoryB,j,,,0,0,0,6,1,7,21,12,,,,,,,,,,,,,,,,,,,f,0,0.27861974999905215,,,,,,,,,,,,,,,,,,,,,,,,,,,,,,,14,001,2021_Sep_14_1512,joplin1,2021.2.3,59.7138959155982,
_train_cond.csv,0 0 0 1 1 1 1 0 0 0,6,categoryA,f,,,0,0,0,6,1,8,22,3,,,,,,,,,,,,,,,,,,,j,0,0.41359449999799835,,,,,,,,,,,,,,,,,,,,,,,,,,,,,,,14,001,2021_Sep_14_1512,joplin1,2021.2.3,59.7138959155982,
_train_cond.csv,1 0 1 1 1 1 1 1 0 1,2,categoryB,j,,,0,0,0,6,1,9,23,8,,,,,,,,,,,,,,,,,,,f,0,0.22579895799935912,,,,,,,,,,,,,,,,,,,,,,,,,,,,,,,14,001,2021_Sep_14_1512,joplin1,2021.2.3,59.7138959155982,
_train_cond.csv,0 1 1 1 1 1 1 1 1 0,2,categoryB,j,,,0,0,0,6,1,10,24,7,,,,,,,,,,,,,,,,,,,f,0,0.5578611250020913,,,,,,,,,,,,,,,,,,,,,,,,,,,,,,,14,001,2021_Sep_14_1512,joplin1,2021.2.3,59.7138959155982,
_train_cond.csv,0 0 1 1 1 1 1 1 0 0,4,categoryB,j,,,0,0,0,6,1,11,25,13,,,,,,,,,,,,,,,,,,,j,1,0.38413924999986193,,,,,,,,,,,,,,,,,,,,,,,,,,,,,,,14,001,2021_Sep_14_1512,joplin1,2021.2.3,59.7138959155982,
_train_cond.csv,0 1 0 0 0 0 0 0 1 0,8,categoryA,f,,,0,0,0,6,1,12,26,1,,,,,,,,,,,,,,,,,,,f,1,0.25433704200258944,,,,,,,,,,,,,,,,,,,,,,,,,,,,,,,14,001,2021_Sep_14_1512,joplin1,2021.2.3,59.7138959155982,
_train_cond.csv,1 1 1 0 0 0 0 1 1 1,4,categoryB,j,,,0,0,0,6,1,13,27,10,,,,,,,,,,,,,,,,,,,j,1,0.3799770420009736,,,,,,,,,,,,,,,,,,,,,,,,,,,,,,,14,001,2021_Sep_14_1512,joplin1,2021.2.3,59.7138959155982,
_train_cond.csv,1 1 0 1 1 1 1 0 1 1,2,categoryB,j,,,0,0,0,6,2,0,28,12,,,,,,,,,,,,,,,,,,,j,1,1.0834114579993184,,,,,,,,,,,,,,,,,,,,,,,,,,,,,,,14,001,2021_Sep_14_1512,joplin1,2021.2.3,59.7138959155982,
_train_cond.csv,1 1 1 0 1 1 0 1 1 1,2,categoryB,j,,,0,0,0,6,2,1,29,11,,,,,,,,,,,,,,,,,,,j,1,2.77374191600029,,,,,,,,,,,,,,,,,,,,,,,,,,,,,,,14,001,2021_Sep_14_1512,joplin1,2021.2.3,59.7138959155982,
_train_cond.csv,0 0 1 0 0 0 0 1 0 0,8,categoryA,f,,,0,0,0,6,2,2,30,5,,,,,,,,,,,,,,,,,,,j,0,0.6191632919981203,,,,,,,,,,,,,,,,,,,,,,,,,,,,,,,14,001,2021_Sep_14_1512,joplin1,2021.2.3,59.7138959155982,
_train_cond.csv,1 0 0 0 0 0 0 0 0 1,8,categoryA,f,,,0,0,0,6,2,3,31,0,,,,,,,,,,,,,,,,,,,f,1,0.14756533299805596,,,,,,,,,,,,,,,,,,,,,,,,,,,,,,,14,001,2021_Sep_14_1512,joplin1,2021.2.3,59.7138959155982,
_train_cond.csv,0 0 0 1 0 0 1 0 0 0,8,categoryA,f,,,0,0,0,6,2,4,32,4,,,,,,,,,,,,,,,,,,,j,0,0.27990645799945923,,,,,,,,,,,,,,,,,,,,,,,,,,,,,,,14,001,2021_Sep_14_1512,joplin1,2021.2.3,59.7138959155982,
_train_cond.csv,1 1 0 1 0 0 1 0 1 1,4,categoryB,j,,,0,0,0,6,2,5,33,9,,,,,,,,,,,,,,,,,,,f,0,1.5036457920032262,,,,,,,,,,,,,,,,,,,,,,,,,,,,,,,14,001,2021_Sep_14_1512,joplin1,2021.2.3,59.7138959155982,
_train_cond.csv,0 0 1 0 1 1 0 1 0 0,6,categoryA,f,,,0,0,0,6,2,6,34,2,,,,,,,,,,,,,,,,,,,j,0,0.23002033400189248,,,,,,,,,,,,,,,,,,,,,,,,,,,,,,,14,001,2021_Sep_14_1512,joplin1,2021.2.3,59.7138959155982,
_train_cond.csv,0 1 1 1 1 1 1 1 1 0,2,categoryB,j,,,0,0,0,6,2,7,35,7,,,,,,,,,,,,,,,,,,,j,1,1.172308791999967,,,,,,,,,,,,,,,,,,,,,,,,,,,,,,,14,001,2021_Sep_14_1512,joplin1,2021.2.3,59.7138959155982,
_train_cond.csv,1 1 1 0 0 0 0 1 1 1,4,categoryB,j,,,0,0,0,6,2,8,36,10,,,,,,,,,,,,,,,,,,,f,0,0.20241812499807565,,,,,,,,,,,,,,,,,,,,,,,,,,,,,,,14,001,2021_Sep_14_1512,joplin1,2021.2.3,59.7138959155982,
_train_cond.csv,1 0 1 1 1 1 1 1 0 1,2,categoryB,j,,,0,0,0,6,2,9,37,8,,,,,,,,,,,,,,,,,,,j,1,0.002204666998295579,,,,,,,,,,,,,,,,,,,,,,,,,,,,,,,14,001,2021_Sep_14_1512,joplin1,2021.2.3,59.7138959155982,
_train_cond.csv,0 1 0 0 0 0 0 0 1 0,8,categoryA,f,,,0,0,0,6,2,10,38,1,,,,,,,,,,,,,,,,,,,f,1,0.6500520000008692,,,,,,,,,,,,,,,,,,,,,,,,,,,,,,,14,001,2021_Sep_14_1512,joplin1,2021.2.3,59.7138959155982,
_train_cond.csv,1 1 0 0 0 0 0 0 1 1,6,categoryA,f,,,0,0,0,6,2,11,39,6,,,,,,,,,,,,,,,,,,,f,1,0.347592791000352,,,,,,,,,,,,,,,,,,,,,,,,,,,,,,,14,001,2021_Sep_14_1512,joplin1,2021.2.3,59.7138959155982,
_train_cond.csv,0 0 1 1 1 1 1 1 0 0,4,categoryB,j,,,0,0,0,6,2,12,40,13,,,,,,,,,,,,,,,,,,,j,1,0.013308749999850988,,,,,,,,,,,,,,,,,,,,,,,,,,,,,,,14,001,2021_Sep_14_1512,joplin1,2021.2.3,59.7138959155982,
_train_cond.csv,0 0 0 1 1 1 1 0 0 0,6,categoryA,f,,,0,0,0,6,2,13,41,3,,,,,,,,,,,,,,,,,,,j,0,0.4694182079983875,,,,,,,,,,,,,,,,,,,,,,,,,,,,,,,14,001,2021_Sep_14_1512,joplin1,2021.2.3,59.7138959155982,
_train_cond.csv,,,,,,,0,0,0,6,,,,,,,,,,,,,,,,,,,,,,,,,,space,3.8017775419975806,,,,,,,,,,,,,,,,,,,,,,,,,,,,,14,001,2021_Sep_14_1512,joplin1,2021.2.3,59.7138959155982,
_train_cond.csv,0 0 1 1 1 1 1 1 0 0,4,categoryB,j,,,0,1,1,7,0,0,0,13,,,,,,,,,,,,,,,,,,,f,0,2.152905124999961,,,,,,,,,,,,,,,,,,,,,,,,,,,,,,,14,001,2021_Sep_14_1512,joplin1,2021.2.3,59.7138959155982,
_train_cond.csv,1 1 0 1 0 0 1 0 1 1,4,categoryB,j,,,0,1,1,7,0,1,1,9,,,,,,,,,,,,,,,,,,,j,1,0.5323389580007643,,,,,,,,,,,,,,,,,,,,,,,,,,,,,,,14,001,2021_Sep_14_1512,joplin1,2021.2.3,59.7138959155982,
_train_cond.csv,0 1 0 0 0 0 0 0 1 0,8,categoryA,f,,,0,1,1,7,0,2,2,1,,,,,,,,,,,,,,,,,,,f,1,0.3030437920024269,,,,,,,,,,,,,,,,,,,,,,,,,,,,,,,14,001,2021_Sep_14_1512,joplin1,2021.2.3,59.7138959155982,
_train_cond.csv,1 0 0 0 0 0 0 0 0 1,8,categoryA,f,,,0,1,1,7,0,3,3,0,,,,,,,,,,,,,,,,,,,j,0,0.6178980840013537,,,,,,,,,,,,,,,,,,,,,,,,,,,,,,,14,001,2021_Sep_14_1512,joplin1,2021.2.3,59.7138959155982,
_train_cond.csv,1 1 0 1 1 1 1 0 1 1,2,categoryB,j,,,0,1,1,7,0,4,4,12,,,,,,,,,,,,,,,,,,,f,0,0.2786222499998985,,,,,,,,,,,,,,,,,,,,,,,,,,,,,,,14,001,2021_Sep_14_1512,joplin1,2021.2.3,59.7138959155982,
_train_cond.csv,1 0 1 1 1 1 1 1 0 1,2,categoryB,j,,,0,1,1,7,0,5,5,8,,,,,,,,,,,,,,,,,,,j,1,0.32580970900016837,,,,,,,,,,,,,,,,,,,,,,,,,,,,,,,14,001,2021_Sep_14_1512,joplin1,2021.2.3,59.7138959155982,
_train_cond.csv,1 1 0 0 0 0 0 0 1 1,6,categoryA,f,,,0,1,1,7,0,6,6,6,,,,,,,,,,,,,,,,,,,f,1,0.3266369169978134,,,,,,,,,,,,,,,,,,,,,,,,,,,,,,,14,001,2021_Sep_14_1512,joplin1,2021.2.3,59.7138959155982,
_train_cond.csv,1 1 1 0 1 1 0 1 1 1,2,categoryB,j,,,0,1,1,7,0,7,7,11,,,,,,,,,,,,,,,,,,,None,0,,,,,,,,,,,,,,,,,,,,,,,,,,,,,,,,14,001,2021_Sep_14_1512,joplin1,2021.2.3,59.7138959155982,
_train_cond.csv,0 0 0 1 0 0 1 0 0 0,8,categoryA,f,,,0,1,1,7,0,8,8,4,,,,,,,,,,,,,,,,,,,None,0,,,,,,,,,,,,,,,,,,,,,,,,,,,,,,,,14,001,2021_Sep_14_1512,joplin1,2021.2.3,59.7138959155982,
_train_cond.csv,1 1 1 0 0 0 0 1 1 1,4,categoryB,j,,,0,1,1,7,0,9,9,10,,,,,,,,,,,,,,,,,,,None,0,,,,,,,,,,,,,,,,,,,,,,,,,,,,,,,,14,001,2021_Sep_14_1512,joplin1,2021.2.3,59.7138959155982,
_train_cond.csv,0 1 1 1 1 1 1 1 1 0,2,categoryB,j,,,0,1,1,7,0,10,10,7,,,,,,,,,,,,,,,,,,,None,0,,,,,,,,,,,,,,,,,,,,,,,,,,,,,,,,14,001,2021_Sep_14_1512,joplin1,2021.2.3,59.7138959155982,
_train_cond.csv,0 0 1 0 1 1 0 1 0 0,6,categoryA,f,,,0,1,1,7,0,11,11,2,,,,,,,,,,,,,,,,,,,None,0,,,,,,,,,,,,,,,,,,,,,,,,,,,,,,,,14,001,2021_Sep_14_1512,joplin1,2021.2.3,59.7138959155982,
_train_cond.csv,0 0 0 1 1 1 1 0 0 0,6,categoryA,f,,,0,1,1,7,0,12,12,3,,,,,,,,,,,,,,,,,,,None,0,,,,,,,,,,,,,,,,,,,,,,,,,,,,,,,,14,001,2021_Sep_14_1512,joplin1,2021.2.3,59.7138959155982,
_train_cond.csv,0 0 1 0 0 0 0 1 0 0,8,categoryA,f,,,0,1,1,7,0,13,13,5,,,,,,,,,,,,,,,,,,,None,0,,,,,,,,,,,,,,,,,,,,,,,,,,,,,,,,14,001,2021_Sep_14_1512,joplin1,2021.2.3,59.7138959155982,
_train_cond.csv,1 1 1 0 1 1 0 1 1 1,2,categoryB,j,,,0,1,1,7,1,0,14,11,,,,,,,,,,,,,,,,,,,None,0,,,,,,,,,,,,,,,,,,,,,,,,,,,,,,,,14,001,2021_Sep_14_1512,joplin1,2021.2.3,59.7138959155982,
_train_cond.csv,1 0 0 0 0 0 0 0 0 1,8,categoryA,f,,,0,1,1,7,1,1,15,0,,,,,,,,,,,,,,,,,,,None,0,,,,,,,,,,,,,,,,,,,,,,,,,,,,,,,,14,001,2021_Sep_14_1512,joplin1,2021.2.3,59.7138959155982,
_train_cond.csv,0 0 0 1 1 1 1 0 0 0,6,categoryA,f,,,0,1,1,7,1,2,16,3,,,,,,,,,,,,,,,,,,,None,0,,,,,,,,,,,,,,,,,,,,,,,,,,,,,,,,14,001,2021_Sep_14_1512,joplin1,2021.2.3,59.7138959155982,
_train_cond.csv,0 1 0 0 0 0 0 0 1 0,8,categoryA,f,,,0,1,1,7,1,3,17,1,,,,,,,,,,,,,,,,,,,None,0,,,,,,,,,,,,,,,,,,,,,,,,,,,,,,,,14,001,2021_Sep_14_1512,joplin1,2021.2.3,59.7138959155982,
_train_cond.csv,1 1 0 1 0 0 1 0 1 1,4,categoryB,j,,,0,1,1,7,1,4,18,9,,,,,,,,,,,,,,,,,,,None,0,,,,,,,,,,,,,,,,,,,,,,,,,,,,,,,,14,001,2021_Sep_14_1512,joplin1,2021.2.3,59.7138959155982,
_train_cond.csv,0 0 1 1 1 1 1 1 0 0,4,categoryB,j,,,0,1,1,7,1,5,19,13,,,,,,,,,,,,,,,,,,,None,0,,,,,,,,,,,,,,,,,,,,,,,,,,,,,,,,14,001,2021_Sep_14_1512,joplin1,2021.2.3,59.7138959155982,
_train_cond.csv,0 0 0 1 0 0 1 0 0 0,8,categoryA,f,,,0,1,1,7,1,6,20,4,,,,,,,,,,,,,,,,,,,None,0,,,,,,,,,,,,,,,,,,,,,,,,,,,,,,,,14,001,2021_Sep_14_1512,joplin1,2021.2.3,59.7138959155982,
_train_cond.csv,1 1 0 0 0 0 0 0 1 1,6,categoryA,f,,,0,1,1,7,1,7,21,6,,,,,,,,,,,,,,,,,,,None,0,,,,,,,,,,,,,,,,,,,,,,,,,,,,,,,,14,001,2021_Sep_14_1512,joplin1,2021.2.3,59.7138959155982,
_train_cond.csv,1 1 1 0 0 0 0 1 1 1,4,categoryB,j,,,0,1,1,7,1,8,22,10,,,,,,,,,,,,,,,,,,,None,0,,,,,,,,,,,,,,,,,,,,,,,,,,,,,,,,14,001,2021_Sep_14_1512,joplin1,2021.2.3,59.7138959155982,
_train_cond.csv,0 0 1 0 0 0 0 1 0 0,8,categoryA,f,,,0,1,1,7,1,9,23,5,,,,,,,,,,,,,,,,,,,None,0,,,,,,,,,,,,,,,,,,,,,,,,,,,,,,,,14,001,2021_Sep_14_1512,joplin1,2021.2.3,59.7138959155982,
_train_cond.csv,1 1 0 1 1 1 1 0 1 1,2,categoryB,j,,,0,1,1,7,1,10,24,12,,,,,,,,,,,,,,,,,,,None,0,,,,,,,,,,,,,,,,,,,,,,,,,,,,,,,,14,001,2021_Sep_14_1512,joplin1,2021.2.3,59.7138959155982,
_train_cond.csv,0 0 1 0 1 1 0 1 0 0,6,categoryA,f,,,0,1,1,7,1,11,25,2,,,,,,,,,,,,,,,,,,,None,0,,,,,,,,,,,,,,,,,,,,,,,,,,,,,,,,14,001,2021_Sep_14_1512,joplin1,2021.2.3,59.7138959155982,
_train_cond.csv,1 0 1 1 1 1 1 1 0 1,2,categoryB,j,,,0,1,1,7,1,12,26,8,,,,,,,,,,,,,,,,,,,None,0,,,,,,,,,,,,,,,,,,,,,,,,,,,,,,,,14,001,2021_Sep_14_1512,joplin1,2021.2.3,59.7138959155982,
_train_cond.csv,0 1 1 1 1 1 1 1 1 0,2,categoryB,j,,,0,1,1,7,1,13,27,7,,,,,,,,,,,,,,,,,,,None,0,,,,,,,,,,,,,,,,,,,,,,,,,,,,,,,,14,001,2021_Sep_14_1512,joplin1,2021.2.3,59.7138959155982,
_train_cond.csv,0 0 0 1 1 1 1 0 0 0,6,categoryA,f,,,0,1,1,7,2,0,28,3,,,,,,,,,,,,,,,,,,,None,0,,,,,,,,,,,,,,,,,,,,,,,,,,,,,,,,14,001,2021_Sep_14_1512,joplin1,2021.2.3,59.7138959155982,
_train_cond.csv,0 0 1 1 1 1 1 1 0 0,4,categoryB,j,,,0,1,1,7,2,1,29,13,,,,,,,,,,,,,,,,,,,None,0,,,,,,,,,,,,,,,,,,,,,,,,,,,,,,,,14,001,2021_Sep_14_1512,joplin1,2021.2.3,59.7138959155982,
_train_cond.csv,1 1 1 0 1 1 0 1 1 1,2,categoryB,j,,,0,1,1,7,2,2,30,11,,,,,,,,,,,,,,,,,,,None,0,,,,,,,,,,,,,,,,,,,,,,,,,,,,,,,,14,001,2021_Sep_14_1512,joplin1,2021.2.3,59.7138959155982,
_train_cond.csv,1 1 0 0 0 0 0 0 1 1,6,categoryA,f,,,0,1,1,7,2,3,31,6,,,,,,,,,,,,,,,,,,,None,0,,,,,,,,,,,,,,,,,,,,,,,,,,,,,,,,14,001,2021_Sep_14_1512,joplin1,2021.2.3,59.7138959155982,
_train_cond.csv,1 0 0 0 0 0 0 0 0 1,8,categoryA,f,,,0,1,1,7,2,4,32,0,,,,,,,,,,,,,,,,,,,None,0,,,,,,,,,,,,,,,,,,,,,,,,,,,,,,,,14,001,2021_Sep_14_1512,joplin1,2021.2.3,59.7138959155982,
_train_cond.csv,1 1 0 1 1 1 1 0 1 1,2,categoryB,j,,,0,1,1,7,2,5,33,12,,,,,,,,,,,,,,,,,,,None,0,,,,,,,,,,,,,,,,,,,,,,,,,,,,,,,,14,001,2021_Sep_14_1512,joplin1,2021.2.3,59.7138959155982,
_train_cond.csv,0 0 1 0 0 0 0 1 0 0,8,categoryA,f,,,0,1,1,7,2,6,34,5,,,,,,,,,,,,,,,,,,,None,0,,,,,,,,,,,,,,,,,,,,,,,,,,,,,,,,14,001,2021_Sep_14_1512,joplin1,2021.2.3,59.7138959155982,
_train_cond.csv,1 1 0 1 0 0 1 0 1 1,4,categoryB,j,,,0,1,1,7,2,7,35,9,,,,,,,,,,,,,,,,,,,None,0,,,,,,,,,,,,,,,,,,,,,,,,,,,,,,,,14,001,2021_Sep_14_1512,joplin1,2021.2.3,59.7138959155982,
_train_cond.csv,1 0 1 1 1 1 1 1 0 1,2,categoryB,j,,,0,1,1,7,2,8,36,8,,,,,,,,,,,,,,,,,,,None,0,,,,,,,,,,,,,,,,,,,,,,,,,,,,,,,,14,001,2021_Sep_14_1512,joplin1,2021.2.3,59.7138959155982,
_train_cond.csv,0 0 0 1 0 0 1 0 0 0,8,categoryA,f,,,0,1,1,7,2,9,37,4,,,,,,,,,,,,,,,,,,,None,0,,,,,,,,,,,,,,,,,,,,,,,,,,,,,,,,14,001,2021_Sep_14_1512,joplin1,2021.2.3,59.7138959155982,
_train_cond.csv,0 0 1 0 1 1 0 1 0 0,6,categoryA,f,,,0,1,1,7,2,10,38,2,,,,,,,,,,,,,,,,,,,None,0,,,,,,,,,,,,,,,,,,,,,,,,,,,,,,,,14,001,2021_Sep_14_1512,joplin1,2021.2.3,59.7138959155982,
_train_cond.csv,0 1 0 0 0 0 0 0 1 0,8,categoryA,f,,,0,1,1,7,2,11,39,1,,,,,,,,,,,,,,,,,,,None,0,,,,,,,,,,,,,,,,,,,,,,,,,,,,,,,,14,001,2021_Sep_14_1512,joplin1,2021.2.3,59.7138959155982,
_train_cond.csv,0 1 1 1 1 1 1 1 1 0,2,categoryB,j,,,0,1,1,7,2,12,40,7,,,,,,,,,,,,,,,,,,,None,0,,,,,,,,,,,,,,,,,,,,,,,,,,,,,,,,14,001,2021_Sep_14_1512,joplin1,2021.2.3,59.7138959155982,
_train_cond.csv,1 1 1 0 0 0 0 1 1 1,4,categoryB,j,,,0,1,1,7,2,13,41,10,,,,,,,,,,,,,,,,,,,j,1,2.073530708999897,,,,,,,,,,,,,,,,,,,,,,,,,,,,,,,14,001,2021_Sep_14_1512,joplin1,2021.2.3,59.7138959155982,
_train_cond.csv,,,,,,,0,1,1,7,,,,,,,,,,,,,,,,,,,,,,,,,,space,4.226863374999084,,,,,,,,,,,,,,,,,,,,,,,,,,,,,14,001,2021_Sep_14_1512,joplin1,2021.2.3,59.7138959155982,
_train_cond.csv,0 0 1 1 1 1 1 1 0 0,4,categoryB,j,,,0,2,2,2,0,0,0,13,,,,,,,,,,,,,,,,,,,None,0,,,,,,,,,,,,,,,,,,,,,,,,,,,,,,,,14,001,2021_Sep_14_1512,joplin1,2021.2.3,59.7138959155982,
_train_cond.csv,0 0 0 1 1 1 1 0 0 0,6,categoryA,f,,,0,2,2,2,0,1,1,3,,,,,,,,,,,,,,,,,,,None,0,,,,,,,,,,,,,,,,,,,,,,,,,,,,,,,,14,001,2021_Sep_14_1512,joplin1,2021.2.3,59.7138959155982,
_train_cond.csv,1 0 0 0 0 0 0 0 0 1,8,categoryA,f,,,0,2,2,2,0,2,2,0,,,,,,,,,,,,,,,,,,,None,0,,,,,,,,,,,,,,,,,,,,,,,,,,,,,,,,14,001,2021_Sep_14_1512,joplin1,2021.2.3,59.7138959155982,
_train_cond.csv,0 0 0 1 0 0 1 0 0 0,8,categoryA,f,,,0,2,2,2,0,3,3,4,,,,,,,,,,,,,,,,,,,None,0,,,,,,,,,,,,,,,,,,,,,,,,,,,,,,,,14,001,2021_Sep_14_1512,joplin1,2021.2.3,59.7138959155982,
_train_cond.csv,0 0 1 0 1 1 0 1 0 0,6,categoryA,f,,,0,2,2,2,0,4,4,2,,,,,,,,,,,,,,,,,,,None,0,,,,,,,,,,,,,,,,,,,,,,,,,,,,,,,,14,001,2021_Sep_14_1512,joplin1,2021.2.3,59.7138959155982,
_train_cond.csv,0 0 1 0 0 0 0 1 0 0,8,categoryA,f,,,0,2,2,2,0,5,5,5,,,,,,,,,,,,,,,,,,,None,0,,,,,,,,,,,,,,,,,,,,,,,,,,,,,,,,14,001,2021_Sep_14_1512,joplin1,2021.2.3,59.7138959155982,
_train_cond.csv,1 1 1 0 1 1 0 1 1 1,2,categoryB,j,,,0,2,2,2,0,6,6,11,,,,,,,,,,,,,,,,,,,None,0,,,,,,,,,,,,,,,,,,,,,,,,,,,,,,,,14,001,2021_Sep_14_1512,joplin1,2021.2.3,59.7138959155982,
_train_cond.csv,1 1 0 1 0 0 1 0 1 1,4,categoryB,j,,,0,2,2,2,0,7,7,9,,,,,,,,,,,,,,,,,,,None,0,,,,,,,,,,,,,,,,,,,,,,,,,,,,,,,,14,001,2021_Sep_14_1512,joplin1,2021.2.3,59.7138959155982,
_train_cond.csv,1 1 0 0 0 0 0 0 1 1,6,categoryA,f,,,0,2,2,2,0,8,8,6,,,,,,,,,,,,,,,,,,,None,0,,,,,,,,,,,,,,,,,,,,,,,,,,,,,,,,14,001,2021_Sep_14_1512,joplin1,2021.2.3,59.7138959155982,
_train_cond.csv,1 0 1 1 1 1 1 1 0 1,2,categoryB,j,,,0,2,2,2,0,9,9,8,,,,,,,,,,,,,,,,,,,None,0,,,,,,,,,,,,,,,,,,,,,,,,,,,,,,,,14,001,2021_Sep_14_1512,joplin1,2021.2.3,59.7138959155982,
_train_cond.csv,0 1 0 0 0 0 0 0 1 0,8,categoryA,f,,,0,2,2,2,0,10,10,1,,,,,,,,,,,,,,,,,,,None,0,,,,,,,,,,,,,,,,,,,,,,,,,,,,,,,,14,001,2021_Sep_14_1512,joplin1,2021.2.3,59.7138959155982,
_train_cond.csv,1 1 0 1 1 1 1 0 1 1,2,categoryB,j,,,0,2,2,2,0,11,11,12,,,,,,,,,,,,,,,,,,,None,0,,,,,,,,,,,,,,,,,,,,,,,,,,,,,,,,14,001,2021_Sep_14_1512,joplin1,2021.2.3,59.7138959155982,
_train_cond.csv,1 1 1 0 0 0 0 1 1 1,4,categoryB,j,,,0,2,2,2,0,12,12,10,,,,,,,,,,,,,,,,,,,None,0,,,,,,,,,,,,,,,,,,,,,,,,,,,,,,,,14,001,2021_Sep_14_1512,joplin1,2021.2.3,59.7138959155982,
_train_cond.csv,0 1 1 1 1 1 1 1 1 0,2,categoryB,j,,,0,2,2,2,0,13,13,7,,,,,,,,,,,,,,,,,,,None,0,,,,,,,,,,,,,,,,,,,,,,,,,,,,,,,,14,001,2021_Sep_14_1512,joplin1,2021.2.3,59.7138959155982,
_train_cond.csv,1 0 0 0 0 0 0 0 0 1,8,categoryA,f,,,0,2,2,2,1,0,14,0,,,,,,,,,,,,,,,,,,,None,0,,,,,,,,,,,,,,,,,,,,,,,,,,,,,,,,14,001,2021_Sep_14_1512,joplin1,2021.2.3,59.7138959155982,
_train_cond.csv,0 1 1 1 1 1 1 1 1 0,2,categoryB,j,,,0,2,2,2,1,1,15,7,,,,,,,,,,,,,,,,,,,None,0,,,,,,,,,,,,,,,,,,,,,,,,,,,,,,,,14,001,2021_Sep_14_1512,joplin1,2021.2.3,59.7138959155982,
_train_cond.csv,1 1 0 1 0 0 1 0 1 1,4,categoryB,j,,,0,2,2,2,1,2,16,9,,,,,,,,,,,,,,,,,,,None,0,,,,,,,,,,,,,,,,,,,,,,,,,,,,,,,,14,001,2021_Sep_14_1512,joplin1,2021.2.3,59.7138959155982,
_train_cond.csv,0 0 1 0 1 1 0 1 0 0,6,categoryA,f,,,0,2,2,2,1,3,17,2,,,,,,,,,,,,,,,,,,,None,0,,,,,,,,,,,,,,,,,,,,,,,,,,,,,,,,14,001,2021_Sep_14_1512,joplin1,2021.2.3,59.7138959155982,
_train_cond.csv,1 0 1 1 1 1 1 1 0 1,2,categoryB,j,,,0,2,2,2,1,4,18,8,,,,,,,,,,,,,,,,,,,None,0,,,,,,,,,,,,,,,,,,,,,,,,,,,,,,,,14,001,2021_Sep_14_1512,joplin1,2021.2.3,59.7138959155982,
_train_cond.csv,1 1 0 0 0 0 0 0 1 1,6,categoryA,f,,,0,2,2,2,1,5,19,6,,,,,,,,,,,,,,,,,,,None,0,,,,,,,,,,,,,,,,,,,,,,,,,,,,,,,,14,001,2021_Sep_14_1512,joplin1,2021.2.3,59.7138959155982,
_train_cond.csv,1 1 0 1 1 1 1 0 1 1,2,categoryB,j,,,0,2,2,2,1,6,20,12,,,,,,,,,,,,,,,,,,,None,0,,,,,,,,,,,,,,,,,,,,,,,,,,,,,,,,14,001,2021_Sep_14_1512,joplin1,2021.2.3,59.7138959155982,
_train_cond.csv,0 0 1 0 0 0 0 1 0 0,8,categoryA,f,,,0,2,2,2,1,7,21,5,,,,,,,,,,,,,,,,,,,None,0,,,,,,,,,,,,,,,,,,,,,,,,,,,,,,,,14,001,2021_Sep_14_1512,joplin1,2021.2.3,59.7138959155982,
_train_cond.csv,0 0 0 1 1 1 1 0 0 0,6,categoryA,f,,,0,2,2,2,1,8,22,3,,,,,,,,,,,,,,,,,,,None,0,,,,,,,,,,,,,,,,,,,,,,,,,,,,,,,,14,001,2021_Sep_14_1512,joplin1,2021.2.3,59.7138959155982,
_train_cond.csv,0 1 0 0 0 0 0 0 1 0,8,categoryA,f,,,0,2,2,2,1,9,23,1,,,,,,,,,,,,,,,,,,,None,0,,,,,,,,,,,,,,,,,,,,,,,,,,,,,,,,14,001,2021_Sep_14_1512,joplin1,2021.2.3,59.7138959155982,
_train_cond.csv,1 1 1 0 1 1 0 1 1 1,2,categoryB,j,,,0,2,2,2,1,10,24,11,,,,,,,,,,,,,,,,,,,None,0,,,,,,,,,,,,,,,,,,,,,,,,,,,,,,,,14,001,2021_Sep_14_1512,joplin1,2021.2.3,59.7138959155982,
_train_cond.csv,0 0 0 1 0 0 1 0 0 0,8,categoryA,f,,,0,2,2,2,1,11,25,4,,,,,,,,,,,,,,,,,,,None,0,,,,,,,,,,,,,,,,,,,,,,,,,,,,,,,,14,001,2021_Sep_14_1512,joplin1,2021.2.3,59.7138959155982,
_train_cond.csv,1 1 1 0 0 0 0 1 1 1,4,categoryB,j,,,0,2,2,2,1,12,26,10,,,,,,,,,,,,,,,,,,,None,0,,,,,,,,,,,,,,,,,,,,,,,,,,,,,,,,14,001,2021_Sep_14_1512,joplin1,2021.2.3,59.7138959155982,
_train_cond.csv,0 0 1 1 1 1 1 1 0 0,4,categoryB,j,,,0,2,2,2,1,13,27,13,,,,,,,,,,,,,,,,,,,None,0,,,,,,,,,,,,,,,,,,,,,,,,,,,,,,,,14,001,2021_Sep_14_1512,joplin1,2021.2.3,59.7138959155982,
_train_cond.csv,1 0 1 1 1 1 1 1 0 1,2,categoryB,j,,,0,2,2,2,2,0,28,8,,,,,,,,,,,,,,,,,,,None,0,,,,,,,,,,,,,,,,,,,,,,,,,,,,,,,,14,001,2021_Sep_14_1512,joplin1,2021.2.3,59.7138959155982,
_train_cond.csv,0 0 1 0 0 0 0 1 0 0,8,categoryA,f,,,0,2,2,2,2,1,29,5,,,,,,,,,,,,,,,,,,,None,0,,,,,,,,,,,,,,,,,,,,,,,,,,,,,,,,14,001,2021_Sep_14_1512,joplin1,2021.2.3,59.7138959155982,
_train_cond.csv,1 1 1 0 0 0 0 1 1 1,4,categoryB,j,,,0,2,2,2,2,2,30,10,,,,,,,,,,,,,,,,,,,None,0,,,,,,,,,,,,,,,,,,,,,,,,,,,,,,,,14,001,2021_Sep_14_1512,joplin1,2021.2.3,59.7138959155982,
_train_cond.csv,0 1 0 0 0 0 0 0 1 0,8,categoryA,f,,,0,2,2,2,2,3,31,1,,,,,,,,,,,,,,,,,,,None,0,,,,,,,,,,,,,,,,,,,,,,,,,,,,,,,,14,001,2021_Sep_14_1512,joplin1,2021.2.3,59.7138959155982,
_train_cond.csv,1 1 1 0 1 1 0 1 1 1,2,categoryB,j,,,0,2,2,2,2,4,32,11,,,,,,,,,,,,,,,,,,,None,0,,,,,,,,,,,,,,,,,,,,,,,,,,,,,,,,14,001,2021_Sep_14_1512,joplin1,2021.2.3,59.7138959155982,
_train_cond.csv,0 0 0 1 0 0 1 0 0 0,8,categoryA,f,,,0,2,2,2,2,5,33,4,,,,,,,,,,,,,,,,,,,None,0,,,,,,,,,,,,,,,,,,,,,,,,,,,,,,,,14,001,2021_Sep_14_1512,joplin1,2021.2.3,59.7138959155982,
_train_cond.csv,1 1 0 1 1 1 1 0 1 1,2,categoryB,j,,,0,2,2,2,2,6,34,12,,,,,,,,,,,,,,,,,,,None,0,,,,,,,,,,,,,,,,,,,,,,,,,,,,,,,,14,001,2021_Sep_14_1512,joplin1,2021.2.3,59.7138959155982,
_train_cond.csv,1 1 0 0 0 0 0 0 1 1,6,categoryA,f,,,0,2,2,2,2,7,35,6,,,,,,,,,,,,,,,,,,,None,0,,,,,,,,,,,,,,,,,,,,,,,,,,,,,,,,14,001,2021_Sep_14_1512,joplin1,2021.2.3,59.7138959155982,
_train_cond.csv,0 0 1 1 1 1 1 1 0 0,4,categoryB,j,,,0,2,2,2,2,8,36,13,,,,,,,,,,,,,,,,,,,None,0,,,,,,,,,,,,,,,,,,,,,,,,,,,,,,,,14,001,2021_Sep_14_1512,joplin1,2021.2.3,59.7138959155982,
_train_cond.csv,0 0 0 1 1 1 1 0 0 0,6,categoryA,f,,,0,2,2,2,2,9,37,3,,,,,,,,,,,,,,,,,,,None,0,,,,,,,,,,,,,,,,,,,,,,,,,,,,,,,,14,001,2021_Sep_14_1512,joplin1,2021.2.3,59.7138959155982,
_train_cond.csv,0 0 1 0 1 1 0 1 0 0,6,categoryA,f,,,0,2,2,2,2,10,38,2,,,,,,,,,,,,,,,,,,,None,0,,,,,,,,,,,,,,,,,,,,,,,,,,,,,,,,14,001,2021_Sep_14_1512,joplin1,2021.2.3,59.7138959155982,
_train_cond.csv,1 0 0 0 0 0 0 0 0 1,8,categoryA,f,,,0,2,2,2,2,11,39,0,,,,,,,,,,,,,,,,,,,None,0,,,,,,,,,,,,,,,,,,,,,,,,,,,,,,,,14,001,2021_Sep_14_1512,joplin1,2021.2.3,59.7138959155982,
_train_cond.csv,1 1 0 1 0 0 1 0 1 1,4,categoryB,j,,,0,2,2,2,2,12,40,9,,,,,,,,,,,,,,,,,,,None,0,,,,,,,,,,,,,,,,,,,,,,,,,,,,,,,,14,001,2021_Sep_14_1512,joplin1,2021.2.3,59.7138959155982,
_train_cond.csv,0 1 1 1 1 1 1 1 1 0,2,categoryB,j,,,0,2,2,2,2,13,41,7,,,,,,,,,,,,,,,,,,,None,0,,,,,,,,,,,,,,,,,,,,,,,,,,,,,,,,14,001,2021_Sep_14_1512,joplin1,2021.2.3,59.7138959155982,
_train_cond.csv,,,,,,,0,2,2,2,,,,,,,,,,,,,,,,,,,,,,,,,,space,2.099176959000033,,,,,,,,,,,,,,,,,,,,,,,,,,,,,14,001,2021_Sep_14_1512,joplin1,2021.2.3,59.7138959155982,
_train_cond.csv,0 0 0 1 1 1 1 0 0 0,6,categoryA,f,,,0,3,3,4,0,0,0,3,,,,,,,,,,,,,,,,,,,None,0,,,,,,,,,,,,,,,,,,,,,,,,,,,,,,,,14,001,2021_Sep_14_1512,joplin1,2021.2.3,59.7138959155982,
_train_cond.csv,1 0 1 1 1 1 1 1 0 1,2,categoryB,j,,,0,3,3,4,0,1,1,8,,,,,,,,,,,,,,,,,,,None,0,,,,,,,,,,,,,,,,,,,,,,,,,,,,,,,,14,001,2021_Sep_14_1512,joplin1,2021.2.3,59.7138959155982,
_train_cond.csv,1 1 0 1 0 0 1 0 1 1,4,categoryB,j,,,0,3,3,4,0,2,2,9,,,,,,,,,,,,,,,,,,,None,0,,,,,,,,,,,,,,,,,,,,,,,,,,,,,,,,14,001,2021_Sep_14_1512,joplin1,2021.2.3,59.7138959155982,
_train_cond.csv,0 0 1 0 0 0 0 1 0 0,8,categoryA,f,,,0,3,3,4,0,3,3,5,,,,,,,,,,,,,,,,,,,None,0,,,,,,,,,,,,,,,,,,,,,,,,,,,,,,,,14,001,2021_Sep_14_1512,joplin1,2021.2.3,59.7138959155982,
_train_cond.csv,0 0 0 1 0 0 1 0 0 0,8,categoryA,f,,,0,3,3,4,0,4,4,4,,,,,,,,,,,,,,,,,,,None,0,,,,,,,,,,,,,,,,,,,,,,,,,,,,,,,,14,001,2021_Sep_14_1512,joplin1,2021.2.3,59.7138959155982,
_train_cond.csv,0 0 1 0 1 1 0 1 0 0,6,categoryA,f,,,0,3,3,4,0,5,5,2,,,,,,,,,,,,,,,,,,,None,0,,,,,,,,,,,,,,,,,,,,,,,,,,,,,,,,14,001,2021_Sep_14_1512,joplin1,2021.2.3,59.7138959155982,
_train_cond.csv,0 1 0 0 0 0 0 0 1 0,8,categoryA,f,,,0,3,3,4,0,6,6,1,,,,,,,,,,,,,,,,,,,None,0,,,,,,,,,,,,,,,,,,,,,,,,,,,,,,,,14,001,2021_Sep_14_1512,joplin1,2021.2.3,59.7138959155982,
_train_cond.csv,1 1 1 0 0 0 0 1 1 1,4,categoryB,j,,,0,3,3,4,0,7,7,10,,,,,,,,,,,,,,,,,,,None,0,,,,,,,,,,,,,,,,,,,,,,,,,,,,,,,,14,001,2021_Sep_14_1512,joplin1,2021.2.3,59.7138959155982,
_train_cond.csv,1 1 0 1 1 1 1 0 1 1,2,categoryB,j,,,0,3,3,4,0,8,8,12,,,,,,,,,,,,,,,,,,,None,0,,,,,,,,,,,,,,,,,,,,,,,,,,,,,,,,14,001,2021_Sep_14_1512,joplin1,2021.2.3,59.7138959155982,
_train_cond.csv,1 1 0 0 0 0 0 0 1 1,6,categoryA,f,,,0,3,3,4,0,9,9,6,,,,,,,,,,,,,,,,,,,None,0,,,,,,,,,,,,,,,,,,,,,,,,,,,,,,,,14,001,2021_Sep_14_1512,joplin1,2021.2.3,59.7138959155982,
_train_cond.csv,0 0 1 1 1 1 1 1 0 0,4,categoryB,j,,,0,3,3,4,0,10,10,13,,,,,,,,,,,,,,,,,,,None,0,,,,,,,,,,,,,,,,,,,,,,,,,,,,,,,,14,001,2021_Sep_14_1512,joplin1,2021.2.3,59.7138959155982,
_train_cond.csv,1 0 0 0 0 0 0 0 0 1,8,categoryA,f,,,0,3,3,4,0,11,11,0,,,,,,,,,,,,,,,,,,,None,0,,,,,,,,,,,,,,,,,,,,,,,,,,,,,,,,14,001,2021_Sep_14_1512,joplin1,2021.2.3,59.7138959155982,
_train_cond.csv,0 1 1 1 1 1 1 1 1 0,2,categoryB,j,,,0,3,3,4,0,12,12,7,,,,,,,,,,,,,,,,,,,None,0,,,,,,,,,,,,,,,,,,,,,,,,,,,,,,,,14,001,2021_Sep_14_1512,joplin1,2021.2.3,59.7138959155982,
_train_cond.csv,1 1 1 0 1 1 0 1 1 1,2,categoryB,j,,,0,3,3,4,0,13,13,11,,,,,,,,,,,,,,,,,,,None,0,,,,,,,,,,,,,,,,,,,,,,,,,,,,,,,,14,001,2021_Sep_14_1512,joplin1,2021.2.3,59.7138959155982,
_train_cond.csv,1 1 0 0 0 0 0 0 1 1,6,categoryA,f,,,0,3,3,4,1,0,14,6,,,,,,,,,,,,,,,,,,,None,0,,,,,,,,,,,,,,,,,,,,,,,,,,,,,,,,14,001,2021_Sep_14_1512,joplin1,2021.2.3,59.7138959155982,
_train_cond.csv,1 1 0 1 0 0 1 0 1 1,4,categoryB,j,,,0,3,3,4,1,1,15,9,,,,,,,,,,,,,,,,,,,None,0,,,,,,,,,,,,,,,,,,,,,,,,,,,,,,,,14,001,2021_Sep_14_1512,joplin1,2021.2.3,59.7138959155982,
_train_cond.csv,1 1 0 1 1 1 1 0 1 1,2,categoryB,j,,,0,3,3,4,1,2,16,12,,,,,,,,,,,,,,,,,,,None,0,,,,,,,,,,,,,,,,,,,,,,,,,,,,,,,,14,001,2021_Sep_14_1512,joplin1,2021.2.3,59.7138959155982,
_train_cond.csv,0 0 0 1 1 1 1 0 0 0,6,categoryA,f,,,0,3,3,4,1,3,17,3,,,,,,,,,,,,,,,,,,,None,0,,,,,,,,,,,,,,,,,,,,,,,,,,,,,,,,14,001,2021_Sep_14_1512,joplin1,2021.2.3,59.7138959155982,
_train_cond.csv,0 0 0 1 0 0 1 0 0 0,8,categoryA,f,,,0,3,3,4,1,4,18,4,,,,,,,,,,,,,,,,,,,None,0,,,,,,,,,,,,,,,,,,,,,,,,,,,,,,,,14,001,2021_Sep_14_1512,joplin1,2021.2.3,59.7138959155982,
_train_cond.csv,1 1 1 0 1 1 0 1 1 1,2,categoryB,j,,,0,3,3,4,1,5,19,11,,,,,,,,,,,,,,,,,,,None,0,,,,,,,,,,,,,,,,,,,,,,,,,,,,,,,,14,001,2021_Sep_14_1512,joplin1,2021.2.3,59.7138959155982,
_train_cond.csv,1 0 1 1 1 1 1 1 0 1,2,categoryB,j,,,0,3,3,4,1,6,20,8,,,,,,,,,,,,,,,,,,,None,0,,,,,,,,,,,,,,,,,,,,,,,,,,,,,,,,14,001,2021_Sep_14_1512,joplin1,2021.2.3,59.7138959155982,
_train_cond.csv,0 1 1 1 1 1 1 1 1 0,2,categoryB,j,,,0,3,3,4,1,7,21,7,,,,,,,,,,,,,,,,,,,None,0,,,,,,,,,,,,,,,,,,,,,,,,,,,,,,,,14,001,2021_Sep_14_1512,joplin1,2021.2.3,59.7138959155982,
_train_cond.csv,0 0 1 0 0 0 0 1 0 0,8,categoryA,f,,,0,3,3,4,1,8,22,5,,,,,,,,,,,,,,,,,,,None,0,,,,,,,,,,,,,,,,,,,,,,,,,,,,,,,,14,001,2021_Sep_14_1512,joplin1,2021.2.3,59.7138959155982,
_train_cond.csv,1 0 0 0 0 0 0 0 0 1,8,categoryA,f,,,0,3,3,4,1,9,23,0,,,,,,,,,,,,,,,,,,,None,0,,,,,,,,,,,,,,,,,,,,,,,,,,,,,,,,14,001,2021_Sep_14_1512,joplin1,2021.2.3,59.7138959155982,
_train_cond.csv,0 1 0 0 0 0 0 0 1 0,8,categoryA,f,,,0,3,3,4,1,10,24,1,,,,,,,,,,,,,,,,,,,None,0,,,,,,,,,,,,,,,,,,,,,,,,,,,,,,,,14,001,2021_Sep_14_1512,joplin1,2021.2.3,59.7138959155982,
_train_cond.csv,0 0 1 1 1 1 1 1 0 0,4,categoryB,j,,,0,3,3,4,1,11,25,13,,,,,,,,,,,,,,,,,,,None,0,,,,,,,,,,,,,,,,,,,,,,,,,,,,,,,,14,001,2021_Sep_14_1512,joplin1,2021.2.3,59.7138959155982,
_train_cond.csv,0 0 1 0 1 1 0 1 0 0,6,categoryA,f,,,0,3,3,4,1,12,26,2,,,,,,,,,,,,,,,,,,,None,0,,,,,,,,,,,,,,,,,,,,,,,,,,,,,,,,14,001,2021_Sep_14_1512,joplin1,2021.2.3,59.7138959155982,
_train_cond.csv,1 1 1 0 0 0 0 1 1 1,4,categoryB,j,,,0,3,3,4,1,13,27,10,,,,,,,,,,,,,,,,,,,None,0,,,,,,,,,,,,,,,,,,,,,,,,,,,,,,,,14,001,2021_Sep_14_1512,joplin1,2021.2.3,59.7138959155982,
_train_cond.csv,0 1 0 0 0 0 0 0 1 0,8,categoryA,f,,,0,3,3,4,2,0,28,1,,,,,,,,,,,,,,,,,,,None,0,,,,,,,,,,,,,,,,,,,,,,,,,,,,,,,,14,001,2021_Sep_14_1512,joplin1,2021.2.3,59.7138959155982,
_train_cond.csv,1 1 0 0 0 0 0 0 1 1,6,categoryA,f,,,0,3,3,4,2,1,29,6,,,,,,,,,,,,,,,,,,,None,0,,,,,,,,,,,,,,,,,,,,,,,,,,,,,,,,14,001,2021_Sep_14_1512,joplin1,2021.2.3,59.7138959155982,
_train_cond.csv,1 0 0 0 0 0 0 0 0 1,8,categoryA,f,,,0,3,3,4,2,2,30,0,,,,,,,,,,,,,,,,,,,None,0,,,,,,,,,,,,,,,,,,,,,,,,,,,,,,,,14,001,2021_Sep_14_1512,joplin1,2021.2.3,59.7138959155982,
_train_cond.csv,0 0 0 1 1 1 1 0 0 0,6,categoryA,f,,,0,3,3,4,2,3,31,3,,,,,,,,,,,,,,,,,,,None,0,,,,,,,,,,,,,,,,,,,,,,,,,,,,,,,,14,001,2021_Sep_14_1512,joplin1,2021.2.3,59.7138959155982,
_train_cond.csv,0 1 1 1 1 1 1 1 1 0,2,categoryB,j,,,0,3,3,4,2,4,32,7,,,,,,,,,,,,,,,,,,,None,0,,,,,,,,,,,,,,,,,,,,,,,,,,,,,,,,14,001,2021_Sep_14_1512,joplin1,2021.2.3,59.7138959155982,
_train_cond.csv,0 0 1 0 1 1 0 1 0 0,6,categoryA,f,,,0,3,3,4,2,5,33,2,,,,,,,,,,,,,,,,,,,None,0,,,,,,,,,,,,,,,,,,,,,,,,,,,,,,,,14,001,2021_Sep_14_1512,joplin1,2021.2.3,59.7138959155982,
_train_cond.csv,1 1 0 1 0 0 1 0 1 1,4,categoryB,j,,,0,3,3,4,2,6,34,9,,,,,,,,,,,,,,,,,,,None,0,,,,,,,,,,,,,,,,,,,,,,,,,,,,,,,,14,001,2021_Sep_14_1512,joplin1,2021.2.3,59.7138959155982,
_train_cond.csv,0 0 1 1 1 1 1 1 0 0,4,categoryB,j,,,0,3,3,4,2,7,35,13,,,,,,,,,,,,,,,,,,,None,0,,,,,,,,,,,,,,,,,,,,,,,,,,,,,,,,14,001,2021_Sep_14_1512,joplin1,2021.2.3,59.7138959155982,
_train_cond.csv,1 0 1 1 1 1 1 1 0 1,2,categoryB,j,,,0,3,3,4,2,8,36,8,,,,,,,,,,,,,,,,,,,None,0,,,,,,,,,,,,,,,,,,,,,,,,,,,,,,,,14,001,2021_Sep_14_1512,joplin1,2021.2.3,59.7138959155982,
_train_cond.csv,0 0 0 1 0 0 1 0 0 0,8,categoryA,f,,,0,3,3,4,2,9,37,4,,,,,,,,,,,,,,,,,,,None,0,,,,,,,,,,,,,,,,,,,,,,,,,,,,,,,,14,001,2021_Sep_14_1512,joplin1,2021.2.3,59.7138959155982,
_train_cond.csv,1 1 1 0 0 0 0 1 1 1,4,categoryB,j,,,0,3,3,4,2,10,38,10,,,,,,,,,,,,,,,,,,,None,0,,,,,,,,,,,,,,,,,,,,,,,,,,,,,,,,14,001,2021_Sep_14_1512,joplin1,2021.2.3,59.7138959155982,
_train_cond.csv,0 0 1 0 0 0 0 1 0 0,8,categoryA,f,,,0,3,3,4,2,11,39,5,,,,,,,,,,,,,,,,,,,None,0,,,,,,,,,,,,,,,,,,,,,,,,,,,,,,,,14,001,2021_Sep_14_1512,joplin1,2021.2.3,59.7138959155982,
_train_cond.csv,1 1 1 0 1 1 0 1 1 1,2,categoryB,j,,,0,3,3,4,2,12,40,11,,,,,,,,,,,,,,,,,,,None,0,,,,,,,,,,,,,,,,,,,,,,,,,,,,,,,,14,001,2021_Sep_14_1512,joplin1,2021.2.3,59.7138959155982,
_train_cond.csv,1 1 0 1 1 1 1 0 1 1,2,categoryB,j,,,0,3,3,4,2,13,41,12,,,,,,,,,,,,,,,,,,,None,0,,,,,,,,,,,,,,,,,,,,,,,,,,,,,,,,14,001,2021_Sep_14_1512,joplin1,2021.2.3,59.7138959155982,
_train_cond.csv,,,,,,,0,3,3,4,,,,,,,,,,,,,,,,,,,,,,,,,,space,2.7504598749983415,,,,,,,,,,,,,,,,,,,,,,,,,,,,,14,001,2021_Sep_14_1512,joplin1,2021.2.3,59.7138959155982,
_train_cond.csv,0 1 1 1 1 1 1 1 1 0,2,categoryB,j,,,0,4,4,5,0,0,0,7,,,,,,,,,,,,,,,,,,,None,0,,,,,,,,,,,,,,,,,,,,,,,,,,,,,,,,14,001,2021_Sep_14_1512,joplin1,2021.2.3,59.7138959155982,
_train_cond.csv,0 0 0 1 0 0 1 0 0 0,8,categoryA,f,,,0,4,4,5,0,1,1,4,,,,,,,,,,,,,,,,,,,None,0,,,,,,,,,,,,,,,,,,,,,,,,,,,,,,,,14,001,2021_Sep_14_1512,joplin1,2021.2.3,59.7138959155982,
_train_cond.csv,1 1 1 0 1 1 0 1 1 1,2,categoryB,j,,,0,4,4,5,0,2,2,11,,,,,,,,,,,,,,,,,,,None,0,,,,,,,,,,,,,,,,,,,,,,,,,,,,,,,,14,001,2021_Sep_14_1512,joplin1,2021.2.3,59.7138959155982,
_train_cond.csv,1 1 1 0 0 0 0 1 1 1,4,categoryB,j,,,0,4,4,5,0,3,3,10,,,,,,,,,,,,,,,,,,,None,0,,,,,,,,,,,,,,,,,,,,,,,,,,,,,,,,14,001,2021_Sep_14_1512,joplin1,2021.2.3,59.7138959155982,
_train_cond.csv,1 1 0 1 1 1 1 0 1 1,2,categoryB,j,,,0,4,4,5,0,4,4,12,,,,,,,,,,,,,,,,,,,None,0,,,,,,,,,,,,,,,,,,,,,,,,,,,,,,,,14,001,2021_Sep_14_1512,joplin1,2021.2.3,59.7138959155982,
_train_cond.csv,0 0 1 0 1 1 0 1 0 0,6,categoryA,f,,,0,4,4,5,0,5,5,2,,,,,,,,,,,,,,,,,,,None,0,,,,,,,,,,,,,,,,,,,,,,,,,,,,,,,,14,001,2021_Sep_14_1512,joplin1,2021.2.3,59.7138959155982,
_train_cond.csv,1 1 0 1 0 0 1 0 1 1,4,categoryB,j,,,0,4,4,5,0,6,6,9,,,,,,,,,,,,,,,,,,,None,0,,,,,,,,,,,,,,,,,,,,,,,,,,,,,,,,14,001,2021_Sep_14_1512,joplin1,2021.2.3,59.7138959155982,
_train_cond.csv,1 0 1 1 1 1 1 1 0 1,2,categoryB,j,,,0,4,4,5,0,7,7,8,,,,,,,,,,,,,,,,,,,None,0,,,,,,,,,,,,,,,,,,,,,,,,,,,,,,,,14,001,2021_Sep_14_1512,joplin1,2021.2.3,59.7138959155982,
_train_cond.csv,0 0 1 1 1 1 1 1 0 0,4,categoryB,j,,,0,4,4,5,0,8,8,13,,,,,,,,,,,,,,,,,,,None,0,,,,,,,,,,,,,,,,,,,,,,,,,,,,,,,,14,001,2021_Sep_14_1512,joplin1,2021.2.3,59.7138959155982,
_train_cond.csv,0 0 0 1 1 1 1 0 0 0,6,categoryA,f,,,0,4,4,5,0,9,9,3,,,,,,,,,,,,,,,,,,,None,0,,,,,,,,,,,,,,,,,,,,,,,,,,,,,,,,14,001,2021_Sep_14_1512,joplin1,2021.2.3,59.7138959155982,
_train_cond.csv,1 0 0 0 0 0 0 0 0 1,8,categoryA,f,,,0,4,4,5,0,10,10,0,,,,,,,,,,,,,,,,,,,None,0,,,,,,,,,,,,,,,,,,,,,,,,,,,,,,,,14,001,2021_Sep_14_1512,joplin1,2021.2.3,59.7138959155982,
_train_cond.csv,1 1 0 0 0 0 0 0 1 1,6,categoryA,f,,,0,4,4,5,0,11,11,6,,,,,,,,,,,,,,,,,,,None,0,,,,,,,,,,,,,,,,,,,,,,,,,,,,,,,,14,001,2021_Sep_14_1512,joplin1,2021.2.3,59.7138959155982,
_train_cond.csv,0 1 0 0 0 0 0 0 1 0,8,categoryA,f,,,0,4,4,5,0,12,12,1,,,,,,,,,,,,,,,,,,,None,0,,,,,,,,,,,,,,,,,,,,,,,,,,,,,,,,14,001,2021_Sep_14_1512,joplin1,2021.2.3,59.7138959155982,
_train_cond.csv,0 0 1 0 0 0 0 1 0 0,8,categoryA,f,,,0,4,4,5,0,13,13,5,,,,,,,,,,,,,,,,,,,None,0,,,,,,,,,,,,,,,,,,,,,,,,,,,,,,,,14,001,2021_Sep_14_1512,joplin1,2021.2.3,59.7138959155982,
_train_cond.csv,1 1 0 1 1 1 1 0 1 1,2,categoryB,j,,,0,4,4,5,1,0,14,12,,,,,,,,,,,,,,,,,,,None,0,,,,,,,,,,,,,,,,,,,,,,,,,,,,,,,,14,001,2021_Sep_14_1512,joplin1,2021.2.3,59.7138959155982,
_train_cond.csv,0 0 0 1 0 0 1 0 0 0,8,categoryA,f,,,0,4,4,5,1,1,15,4,,,,,,,,,,,,,,,,,,,None,0,,,,,,,,,,,,,,,,,,,,,,,,,,,,,,,,14,001,2021_Sep_14_1512,joplin1,2021.2.3,59.7138959155982,
_train_cond.csv,0 0 1 0 1 1 0 1 0 0,6,categoryA,f,,,0,4,4,5,1,2,16,2,,,,,,,,,,,,,,,,,,,None,0,,,,,,,,,,,,,,,,,,,,,,,,,,,,,,,,14,001,2021_Sep_14_1512,joplin1,2021.2.3,59.7138959155982,
_train_cond.csv,0 0 1 1 1 1 1 1 0 0,4,categoryB,j,,,0,4,4,5,1,3,17,13,,,,,,,,,,,,,,,,,,,None,0,,,,,,,,,,,,,,,,,,,,,,,,,,,,,,,,14,001,2021_Sep_14_1512,joplin1,2021.2.3,59.7138959155982,
_train_cond.csv,0 0 1 0 0 0 0 1 0 0,8,categoryA,f,,,0,4,4,5,1,4,18,5,,,,,,,,,,,,,,,,,,,None,0,,,,,,,,,,,,,,,,,,,,,,,,,,,,,,,,14,001,2021_Sep_14_1512,joplin1,2021.2.3,59.7138959155982,
_train_cond.csv,1 1 0 1 0 0 1 0 1 1,4,categoryB,j,,,0,4,4,5,1,5,19,9,,,,,,,,,,,,,,,,,,,None,0,,,,,,,,,,,,,,,,,,,,,,,,,,,,,,,,14,001,2021_Sep_14_1512,joplin1,2021.2.3,59.7138959155982,
_train_cond.csv,1 1 0 0 0 0 0 0 1 1,6,categoryA,f,,,0,4,4,5,1,6,20,6,,,,,,,,,,,,,,,,,,,None,0,,,,,,,,,,,,,,,,,,,,,,,,,,,,,,,,14,001,2021_Sep_14_1512,joplin1,2021.2.3,59.7138959155982,
_train_cond.csv,0 0 0 1 1 1 1 0 0 0,6,categoryA,f,,,0,4,4,5,1,7,21,3,,,,,,,,,,,,,,,,,,,None,0,,,,,,,,,,,,,,,,,,,,,,,,,,,,,,,,14,001,2021_Sep_14_1512,joplin1,2021.2.3,59.7138959155982,
_train_cond.csv,1 0 0 0 0 0 0 0 0 1,8,categoryA,f,,,0,4,4,5,1,8,22,0,,,,,,,,,,,,,,,,,,,None,0,,,,,,,,,,,,,,,,,,,,,,,,,,,,,,,,14,001,2021_Sep_14_1512,joplin1,2021.2.3,59.7138959155982,
_train_cond.csv,0 1 0 0 0 0 0 0 1 0,8,categoryA,f,,,0,4,4,5,1,9,23,1,,,,,,,,,,,,,,,,,,,None,0,,,,,,,,,,,,,,,,,,,,,,,,,,,,,,,,14,001,2021_Sep_14_1512,joplin1,2021.2.3,59.7138959155982,
_train_cond.csv,1 1 1 0 1 1 0 1 1 1,2,categoryB,j,,,0,4,4,5,1,10,24,11,,,,,,,,,,,,,,,,,,,None,0,,,,,,,,,,,,,,,,,,,,,,,,,,,,,,,,14,001,2021_Sep_14_1512,joplin1,2021.2.3,59.7138959155982,
_train_cond.csv,1 0 1 1 1 1 1 1 0 1,2,categoryB,j,,,0,4,4,5,1,11,25,8,,,,,,,,,,,,,,,,,,,None,0,,,,,,,,,,,,,,,,,,,,,,,,,,,,,,,,14,001,2021_Sep_14_1512,joplin1,2021.2.3,59.7138959155982,
_train_cond.csv,1 1 1 0 0 0 0 1 1 1,4,categoryB,j,,,0,4,4,5,1,12,26,10,,,,,,,,,,,,,,,,,,,None,0,,,,,,,,,,,,,,,,,,,,,,,,,,,,,,,,14,001,2021_Sep_14_1512,joplin1,2021.2.3,59.7138959155982,
_train_cond.csv,0 1 1 1 1 1 1 1 1 0,2,categoryB,j,,,0,4,4,5,1,13,27,7,,,,,,,,,,,,,,,,,,,None,0,,,,,,,,,,,,,,,,,,,,,,,,,,,,,,,,14,001,2021_Sep_14_1512,joplin1,2021.2.3,59.7138959155982,
_train_cond.csv,0 0 1 0 0 0 0 1 0 0,8,categoryA,f,,,0,4,4,5,2,0,28,5,,,,,,,,,,,,,,,,,,,None,0,,,,,,,,,,,,,,,,,,,,,,,,,,,,,,,,14,001,2021_Sep_14_1512,joplin1,2021.2.3,59.7138959155982,
_train_cond.csv,0 0 1 1 1 1 1 1 0 0,4,categoryB,j,,,0,4,4,5,2,1,29,13,,,,,,,,,,,,,,,,,,,None,0,,,,,,,,,,,,,,,,,,,,,,,,,,,,,,,,14,001,2021_Sep_14_1512,joplin1,2021.2.3,59.7138959155982,
_train_cond.csv,1 1 0 1 0 0 1 0 1 1,4,categoryB,j,,,0,4,4,5,2,2,30,9,,,,,,,,,,,,,,,,,,,None,0,,,,,,,,,,,,,,,,,,,,,,,,,,,,,,,,14,001,2021_Sep_14_1512,joplin1,2021.2.3,59.7138959155982,
_train_cond.csv,0 1 1 1 1 1 1 1 1 0,2,categoryB,j,,,0,4,4,5,2,3,31,7,,,,,,,,,,,,,,,,,,,None,0,,,,,,,,,,,,,,,,,,,,,,,,,,,,,,,,14,001,2021_Sep_14_1512,joplin1,2021.2.3,59.7138959155982,
_train_cond.csv,1 0 1 1 1 1 1 1 0 1,2,categoryB,j,,,0,4,4,5,2,4,32,8,,,,,,,,,,,,,,,,,,,None,0,,,,,,,,,,,,,,,,,,,,,,,,,,,,,,,,14,001,2021_Sep_14_1512,joplin1,2021.2.3,59.7138959155982,
_train_cond.csv,1 0 0 0 0 0 0 0 0 1,8,categoryA,f,,,0,4,4,5,2,5,33,0,,,,,,,,,,,,,,,,,,,None,0,,,,,,,,,,,,,,,,,,,,,,,,,,,,,,,,14,001,2021_Sep_14_1512,joplin1,2021.2.3,59.7138959155982,
_train_cond.csv,0 0 0 1 0 0 1 0 0 0,8,categoryA,f,,,0,4,4,5,2,6,34,4,,,,,,,,,,,,,,,,,,,None,0,,,,,,,,,,,,,,,,,,,,,,,,,,,,,,,,14,001,2021_Sep_14_1512,joplin1,2021.2.3,59.7138959155982,
_train_cond.csv,1 1 0 0 0 0 0 0 1 1,6,categoryA,f,,,0,4,4,5,2,7,35,6,,,,,,,,,,,,,,,,,,,None,0,,,,,,,,,,,,,,,,,,,,,,,,,,,,,,,,14,001,2021_Sep_14_1512,joplin1,2021.2.3,59.7138959155982,
_train_cond.csv,0 0 0 1 1 1 1 0 0 0,6,categoryA,f,,,0,4,4,5,2,8,36,3,,,,,,,,,,,,,,,,,,,None,0,,,,,,,,,,,,,,,,,,,,,,,,,,,,,,,,14,001,2021_Sep_14_1512,joplin1,2021.2.3,59.7138959155982,
_train_cond.csv,1 1 1 0 1 1 0 1 1 1,2,categoryB,j,,,0,4,4,5,2,9,37,11,,,,,,,,,,,,,,,,,,,None,0,,,,,,,,,,,,,,,,,,,,,,,,,,,,,,,,14,001,2021_Sep_14_1512,joplin1,2021.2.3,59.7138959155982,
_train_cond.csv,1 1 1 0 0 0 0 1 1 1,4,categoryB,j,,,0,4,4,5,2,10,38,10,,,,,,,,,,,,,,,,,,,None,0,,,,,,,,,,,,,,,,,,,,,,,,,,,,,,,,14,001,2021_Sep_14_1512,joplin1,2021.2.3,59.7138959155982,
_train_cond.csv,1 1 0 1 1 1 1 0 1 1,2,categoryB,j,,,0,4,4,5,2,11,39,12,,,,,,,,,,,,,,,,,,,None,0,,,,,,,,,,,,,,,,,,,,,,,,,,,,,,,,14,001,2021_Sep_14_1512,joplin1,2021.2.3,59.7138959155982,
_train_cond.csv,0 1 0 0 0 0 0 0 1 0,8,categoryA,f,,,0,4,4,5,2,12,40,1,,,,,,,,,,,,,,,,,,,None,0,,,,,,,,,,,,,,,,,,,,,,,,,,,,,,,,14,001,2021_Sep_14_1512,joplin1,2021.2.3,59.7138959155982,
_train_cond.csv,0 0 1 0 1 1 0 1 0 0,6,categoryA,f,,,0,4,4,5,2,13,41,2,,,,,,,,,,,,,,,,,,,None,0,,,,,,,,,,,,,,,,,,,,,,,,,,,,,,,,14,001,2021_Sep_14_1512,joplin1,2021.2.3,59.7138959155982,
_train_cond.csv,,,,,,,0,4,4,5,,,,,,,,,,,,,,,,,,,,,,,,,,space,1.6996131250016333,,,,,,,,,,,,,,,,,,,,,,,,,,,,,14,001,2021_Sep_14_1512,joplin1,2021.2.3,59.7138959155982,
_train_cond.csv,1 1 0 1 1 1 1 0 1 1,2,categoryB,j,,,0,5,5,3,0,0,0,12,,,,,,,,,,,,,,,,,,,None,0,,,,,,,,,,,,,,,,,,,,,,,,,,,,,,,,14,001,2021_Sep_14_1512,joplin1,2021.2.3,59.7138959155982,
_train_cond.csv,0 0 1 1 1 1 1 1 0 0,4,categoryB,j,,,0,5,5,3,0,1,1,13,,,,,,,,,,,,,,,,,,,None,0,,,,,,,,,,,,,,,,,,,,,,,,,,,,,,,,14,001,2021_Sep_14_1512,joplin1,2021.2.3,59.7138959155982,
_train_cond.csv,1 1 0 1 0 0 1 0 1 1,4,categoryB,j,,,0,5,5,3,0,2,2,9,,,,,,,,,,,,,,,,,,,None,0,,,,,,,,,,,,,,,,,,,,,,,,,,,,,,,,14,001,2021_Sep_14_1512,joplin1,2021.2.3,59.7138959155982,
_train_cond.csv,1 0 1 1 1 1 1 1 0 1,2,categoryB,j,,,0,5,5,3,0,3,3,8,,,,,,,,,,,,,,,,,,,None,0,,,,,,,,,,,,,,,,,,,,,,,,,,,,,,,,14,001,2021_Sep_14_1512,joplin1,2021.2.3,59.7138959155982,
_train_cond.csv,1 0 0 0 0 0 0 0 0 1,8,categoryA,f,,,0,5,5,3,0,4,4,0,,,,,,,,,,,,,,,,,,,None,0,,,,,,,,,,,,,,,,,,,,,,,,,,,,,,,,14,001,2021_Sep_14_1512,joplin1,2021.2.3,59.7138959155982,
_train_cond.csv,1 1 1 0 0 0 0 1 1 1,4,categoryB,j,,,0,5,5,3,0,5,5,10,,,,,,,,,,,,,,,,,,,None,0,,,,,,,,,,,,,,,,,,,,,,,,,,,,,,,,14,001,2021_Sep_14_1512,joplin1,2021.2.3,59.7138959155982,
_train_cond.csv,0 1 0 0 0 0 0 0 1 0,8,categoryA,f,,,0,5,5,3,0,6,6,1,,,,,,,,,,,,,,,,,,,None,0,,,,,,,,,,,,,,,,,,,,,,,,,,,,,,,,14,001,2021_Sep_14_1512,joplin1,2021.2.3,59.7138959155982,
_train_cond.csv,0 0 1 0 0 0 0 1 0 0,8,categoryA,f,,,0,5,5,3,0,7,7,5,,,,,,,,,,,,,,,,,,,None,0,,,,,,,,,,,,,,,,,,,,,,,,,,,,,,,,14,001,2021_Sep_14_1512,joplin1,2021.2.3,59.7138959155982,
_train_cond.csv,0 0 0 1 0 0 1 0 0 0,8,categoryA,f,,,0,5,5,3,0,8,8,4,,,,,,,,,,,,,,,,,,,None,0,,,,,,,,,,,,,,,,,,,,,,,,,,,,,,,,14,001,2021_Sep_14_1512,joplin1,2021.2.3,59.7138959155982,
_train_cond.csv,1 1 1 0 1 1 0 1 1 1,2,categoryB,j,,,0,5,5,3,0,9,9,11,,,,,,,,,,,,,,,,,,,None,0,,,,,,,,,,,,,,,,,,,,,,,,,,,,,,,,14,001,2021_Sep_14_1512,joplin1,2021.2.3,59.7138959155982,
_train_cond.csv,0 1 1 1 1 1 1 1 1 0,2,categoryB,j,,,0,5,5,3,0,10,10,7,,,,,,,,,,,,,,,,,,,None,0,,,,,,,,,,,,,,,,,,,,,,,,,,,,,,,,14,001,2021_Sep_14_1512,joplin1,2021.2.3,59.7138959155982,
_train_cond.csv,1 1 0 0 0 0 0 0 1 1,6,categoryA,f,,,0,5,5,3,0,11,11,6,,,,,,,,,,,,,,,,,,,None,0,,,,,,,,,,,,,,,,,,,,,,,,,,,,,,,,14,001,2021_Sep_14_1512,joplin1,2021.2.3,59.7138959155982,
_train_cond.csv,0 0 0 1 1 1 1 0 0 0,6,categoryA,f,,,0,5,5,3,0,12,12,3,,,,,,,,,,,,,,,,,,,None,0,,,,,,,,,,,,,,,,,,,,,,,,,,,,,,,,14,001,2021_Sep_14_1512,joplin1,2021.2.3,59.7138959155982,
_train_cond.csv,0 0 1 0 1 1 0 1 0 0,6,categoryA,f,,,0,5,5,3,0,13,13,2,,,,,,,,,,,,,,,,,,,None,0,,,,,,,,,,,,,,,,,,,,,,,,,,,,,,,,14,001,2021_Sep_14_1512,joplin1,2021.2.3,59.7138959155982,
_train_cond.csv,0 0 1 1 1 1 1 1 0 0,4,categoryB,j,,,0,5,5,3,1,0,14,13,,,,,,,,,,,,,,,,,,,None,0,,,,,,,,,,,,,,,,,,,,,,,,,,,,,,,,14,001,2021_Sep_14_1512,joplin1,2021.2.3,59.7138959155982,
_train_cond.csv,1 1 0 1 1 1 1 0 1 1,2,categoryB,j,,,0,5,5,3,1,1,15,12,,,,,,,,,,,,,,,,,,,None,0,,,,,,,,,,,,,,,,,,,,,,,,,,,,,,,,14,001,2021_Sep_14_1512,joplin1,2021.2.3,59.7138959155982,
_train_cond.csv,0 0 0 1 0 0 1 0 0 0,8,categoryA,f,,,0,5,5,3,1,2,16,4,,,,,,,,,,,,,,,,,,,None,0,,,,,,,,,,,,,,,,,,,,,,,,,,,,,,,,14,001,2021_Sep_14_1512,joplin1,2021.2.3,59.7138959155982,
_train_cond.csv,1 1 1 0 1 1 0 1 1 1,2,categoryB,j,,,0,5,5,3,1,3,17,11,,,,,,,,,,,,,,,,,,,None,0,,,,,,,,,,,,,,,,,,,,,,,,,,,,,,,,14,001,2021_Sep_14_1512,joplin1,2021.2.3,59.7138959155982,
_train_cond.csv,0 1 1 1 1 1 1 1 1 0,2,categoryB,j,,,0,5,5,3,1,4,18,7,,,,,,,,,,,,,,,,,,,None,0,,,,,,,,,,,,,,,,,,,,,,,,,,,,,,,,14,001,2021_Sep_14_1512,joplin1,2021.2.3,59.7138959155982,
_train_cond.csv,1 1 0 1 0 0 1 0 1 1,4,categoryB,j,,,0,5,5,3,1,5,19,9,,,,,,,,,,,,,,,,,,,None,0,,,,,,,,,,,,,,,,,,,,,,,,,,,,,,,,14,001,2021_Sep_14_1512,joplin1,2021.2.3,59.7138959155982,
_train_cond.csv,0 0 1 0 0 0 0 1 0 0,8,categoryA,f,,,0,5,5,3,1,6,20,5,,,,,,,,,,,,,,,,,,,None,0,,,,,,,,,,,,,,,,,,,,,,,,,,,,,,,,14,001,2021_Sep_14_1512,joplin1,2021.2.3,59.7138959155982,
_train_cond.csv,1 1 1 0 0 0 0 1 1 1,4,categoryB,j,,,0,5,5,3,1,7,21,10,,,,,,,,,,,,,,,,,,,None,0,,,,,,,,,,,,,,,,,,,,,,,,,,,,,,,,14,001,2021_Sep_14_1512,joplin1,2021.2.3,59.7138959155982,
_train_cond.csv,1 0 1 1 1 1 1 1 0 1,2,categoryB,j,,,0,5,5,3,1,8,22,8,,,,,,,,,,,,,,,,,,,None,0,,,,,,,,,,,,,,,,,,,,,,,,,,,,,,,,14,001,2021_Sep_14_1512,joplin1,2021.2.3,59.7138959155982,
_train_cond.csv,0 0 1 0 1 1 0 1 0 0,6,categoryA,f,,,0,5,5,3,1,9,23,2,,,,,,,,,,,,,,,,,,,None,0,,,,,,,,,,,,,,,,,,,,,,,,,,,,,,,,14,001,2021_Sep_14_1512,joplin1,2021.2.3,59.7138959155982,
_train_cond.csv,1 1 0 0 0 0 0 0 1 1,6,categoryA,f,,,0,5,5,3,1,10,24,6,,,,,,,,,,,,,,,,,,,None,0,,,,,,,,,,,,,,,,,,,,,,,,,,,,,,,,14,001,2021_Sep_14_1512,joplin1,2021.2.3,59.7138959155982,
_train_cond.csv,0 1 0 0 0 0 0 0 1 0,8,categoryA,f,,,0,5,5,3,1,11,25,1,,,,,,,,,,,,,,,,,,,None,0,,,,,,,,,,,,,,,,,,,,,,,,,,,,,,,,14,001,2021_Sep_14_1512,joplin1,2021.2.3,59.7138959155982,
_train_cond.csv,0 0 0 1 1 1 1 0 0 0,6,categoryA,f,,,0,5,5,3,1,12,26,3,,,,,,,,,,,,,,,,,,,None,0,,,,,,,,,,,,,,,,,,,,,,,,,,,,,,,,14,001,2021_Sep_14_1512,joplin1,2021.2.3,59.7138959155982,
_train_cond.csv,1 0 0 0 0 0 0 0 0 1,8,categoryA,f,,,0,5,5,3,1,13,27,0,,,,,,,,,,,,,,,,,,,None,0,,,,,,,,,,,,,,,,,,,,,,,,,,,,,,,,14,001,2021_Sep_14_1512,joplin1,2021.2.3,59.7138959155982,
_train_cond.csv,0 0 1 0 1 1 0 1 0 0,6,categoryA,f,,,0,5,5,3,2,0,28,2,,,,,,,,,,,,,,,,,,,None,0,,,,,,,,,,,,,,,,,,,,,,,,,,,,,,,,14,001,2021_Sep_14_1512,joplin1,2021.2.3,59.7138959155982,
_train_cond.csv,0 0 1 0 0 0 0 1 0 0,8,categoryA,f,,,0,5,5,3,2,1,29,5,,,,,,,,,,,,,,,,,,,None,0,,,,,,,,,,,,,,,,,,,,,,,,,,,,,,,,14,001,2021_Sep_14_1512,joplin1,2021.2.3,59.7138959155982,
_train_cond.csv,0 0 0 1 0 0 1 0 0 0,8,categoryA,f,,,0,5,5,3,2,2,30,4,,,,,,,,,,,,,,,,,,,None,0,,,,,,,,,,,,,,,,,,,,,,,,,,,,,,,,14,001,2021_Sep_14_1512,joplin1,2021.2.3,59.7138959155982,
_train_cond.csv,0 1 1 1 1 1 1 1 1 0,2,categoryB,j,,,0,5,5,3,2,3,31,7,,,,,,,,,,,,,,,,,,,None,0,,,,,,,,,,,,,,,,,,,,,,,,,,,,,,,,14,001,2021_Sep_14_1512,joplin1,2021.2.3,59.7138959155982,
_train_cond.csv,1 1 1 0 0 0 0 1 1 1,4,categoryB,j,,,0,5,5,3,2,4,32,10,,,,,,,,,,,,,,,,,,,None,0,,,,,,,,,,,,,,,,,,,,,,,,,,,,,,,,14,001,2021_Sep_14_1512,joplin1,2021.2.3,59.7138959155982,
_train_cond.csv,1 0 0 0 0 0 0 0 0 1,8,categoryA,f,,,0,5,5,3,2,5,33,0,,,,,,,,,,,,,,,,,,,None,0,,,,,,,,,,,,,,,,,,,,,,,,,,,,,,,,14,001,2021_Sep_14_1512,joplin1,2021.2.3,59.7138959155982,
_train_cond.csv,1 1 1 0 1 1 0 1 1 1,2,categoryB,j,,,0,5,5,3,2,6,34,11,,,,,,,,,,,,,,,,,,,None,0,,,,,,,,,,,,,,,,,,,,,,,,,,,,,,,,14,001,2021_Sep_14_1512,joplin1,2021.2.3,59.7138959155982,
_train_cond.csv,0 0 1 1 1 1 1 1 0 0,4,categoryB,j,,,0,5,5,3,2,7,35,13,,,,,,,,,,,,,,,,,,,None,0,,,,,,,,,,,,,,,,,,,,,,,,,,,,,,,,14,001,2021_Sep_14_1512,joplin1,2021.2.3,59.7138959155982,
_train_cond.csv,1 1 0 1 0 0 1 0 1 1,4,categoryB,j,,,0,5,5,3,2,8,36,9,,,,,,,,,,,,,,,,,,,None,0,,,,,,,,,,,,,,,,,,,,,,,,,,,,,,,,14,001,2021_Sep_14_1512,joplin1,2021.2.3,59.7138959155982,
_train_cond.csv,1 1 0 0 0 0 0 0 1 1,6,categoryA,f,,,0,5,5,3,2,9,37,6,,,,,,,,,,,,,,,,,,,None,0,,,,,,,,,,,,,,,,,,,,,,,,,,,,,,,,14,001,2021_Sep_14_1512,joplin1,2021.2.3,59.7138959155982,
_train_cond.csv,1 1 0 1 1 1 1 0 1 1,2,categoryB,j,,,0,5,5,3,2,10,38,12,,,,,,,,,,,,,,,,,,,None,0,,,,,,,,,,,,,,,,,,,,,,,,,,,,,,,,14,001,2021_Sep_14_1512,joplin1,2021.2.3,59.7138959155982,
_train_cond.csv,1 0 1 1 1 1 1 1 0 1,2,categoryB,j,,,0,5,5,3,2,11,39,8,,,,,,,,,,,,,,,,,,,None,0,,,,,,,,,,,,,,,,,,,,,,,,,,,,,,,,14,001,2021_Sep_14_1512,joplin1,2021.2.3,59.7138959155982,
_train_cond.csv,0 1 0 0 0 0 0 0 1 0,8,categoryA,f,,,0,5,5,3,2,12,40,1,,,,,,,,,,,,,,,,,,,None,0,,,,,,,,,,,,,,,,,,,,,,,,,,,,,,,,14,001,2021_Sep_14_1512,joplin1,2021.2.3,59.7138959155982,
_train_cond.csv,0 0 0 1 1 1 1 0 0 0,6,categoryA,f,,,0,5,5,3,2,13,41,3,,,,,,,,,,,,,,,,,,,None,0,,,,,,,,,,,,,,,,,,,,,,,,,,,,,,,,14,001,2021_Sep_14_1512,joplin1,2021.2.3,59.7138959155982,
_train_cond.csv,,,,,,,0,5,5,3,,,,,,,,,,,,,,,,,,,,,,,,,,space,5.789967125001567,,,,,,,,,,,,,,,,,,,,,,,,,,,,,14,001,2021_Sep_14_1512,joplin1,2021.2.3,59.7138959155982,
_train_cond.csv,1 1 0 1 0 0 1 0 1 1,4,categoryB,j,,,0,6,6,0,0,0,0,9,,,,,,,,,,,,,,,,,,,None,0,,,,,,,,,,,,,,,,,,,,,,,,,,,,,,,,14,001,2021_Sep_14_1512,joplin1,2021.2.3,59.7138959155982,
_train_cond.csv,1 1 0 0 0 0 0 0 1 1,6,categoryA,f,,,0,6,6,0,0,1,1,6,,,,,,,,,,,,,,,,,,,None,0,,,,,,,,,,,,,,,,,,,,,,,,,,,,,,,,14,001,2021_Sep_14_1512,joplin1,2021.2.3,59.7138959155982,
_train_cond.csv,0 1 0 0 0 0 0 0 1 0,8,categoryA,f,,,0,6,6,0,0,2,2,1,,,,,,,,,,,,,,,,,,,None,0,,,,,,,,,,,,,,,,,,,,,,,,,,,,,,,,14,001,2021_Sep_14_1512,joplin1,2021.2.3,59.7138959155982,
_train_cond.csv,1 0 0 0 0 0 0 0 0 1,8,categoryA,f,,,0,6,6,0,0,3,3,0,,,,,,,,,,,,,,,,,,,None,0,,,,,,,,,,,,,,,,,,,,,,,,,,,,,,,,14,001,2021_Sep_14_1512,joplin1,2021.2.3,59.7138959155982,
_train_cond.csv,1 0 1 1 1 1 1 1 0 1,2,categoryB,j,,,0,6,6,0,0,4,4,8,,,,,,,,,,,,,,,,,,,None,0,,,,,,,,,,,,,,,,,,,,,,,,,,,,,,,,14,001,2021_Sep_14_1512,joplin1,2021.2.3,59.7138959155982,
_train_cond.csv,1 1 1 0 1 1 0 1 1 1,2,categoryB,j,,,0,6,6,0,0,5,5,11,,,,,,,,,,,,,,,,,,,None,0,,,,,,,,,,,,,,,,,,,,,,,,,,,,,,,,14,001,2021_Sep_14_1512,joplin1,2021.2.3,59.7138959155982,
_train_cond.csv,1 1 0 1 1 1 1 0 1 1,2,categoryB,j,,,0,6,6,0,0,6,6,12,,,,,,,,,,,,,,,,,,,None,0,,,,,,,,,,,,,,,,,,,,,,,,,,,,,,,,14,001,2021_Sep_14_1512,joplin1,2021.2.3,59.7138959155982,
_train_cond.csv,1 1 1 0 0 0 0 1 1 1,4,categoryB,j,,,0,6,6,0,0,7,7,10,,,,,,,,,,,,,,,,,,,None,0,,,,,,,,,,,,,,,,,,,,,,,,,,,,,,,,14,001,2021_Sep_14_1512,joplin1,2021.2.3,59.7138959155982,
_train_cond.csv,0 0 0 1 0 0 1 0 0 0,8,categoryA,f,,,0,6,6,0,0,8,8,4,,,,,,,,,,,,,,,,,,,None,0,,,,,,,,,,,,,,,,,,,,,,,,,,,,,,,,14,001,2021_Sep_14_1512,joplin1,2021.2.3,59.7138959155982,
_train_cond.csv,0 0 0 1 1 1 1 0 0 0,6,categoryA,f,,,0,6,6,0,0,9,9,3,,,,,,,,,,,,,,,,,,,None,0,,,,,,,,,,,,,,,,,,,,,,,,,,,,,,,,14,001,2021_Sep_14_1512,joplin1,2021.2.3,59.7138959155982,
_train_cond.csv,0 0 1 0 0 0 0 1 0 0,8,categoryA,f,,,0,6,6,0,0,10,10,5,,,,,,,,,,,,,,,,,,,None,0,,,,,,,,,,,,,,,,,,,,,,,,,,,,,,,,14,001,2021_Sep_14_1512,joplin1,2021.2.3,59.7138959155982,
_train_cond.csv,0 0 1 1 1 1 1 1 0 0,4,categoryB,j,,,0,6,6,0,0,11,11,13,,,,,,,,,,,,,,,,,,,None,0,,,,,,,,,,,,,,,,,,,,,,,,,,,,,,,,14,001,2021_Sep_14_1512,joplin1,2021.2.3,59.7138959155982,
_train_cond.csv,0 0 1 0 1 1 0 1 0 0,6,categoryA,f,,,0,6,6,0,0,12,12,2,,,,,,,,,,,,,,,,,,,None,0,,,,,,,,,,,,,,,,,,,,,,,,,,,,,,,,14,001,2021_Sep_14_1512,joplin1,2021.2.3,59.7138959155982,
_train_cond.csv,0 1 1 1 1 1 1 1 1 0,2,categoryB,j,,,0,6,6,0,0,13,13,7,,,,,,,,,,,,,,,,,,,None,0,,,,,,,,,,,,,,,,,,,,,,,,,,,,,,,,14,001,2021_Sep_14_1512,joplin1,2021.2.3,59.7138959155982,
_train_cond.csv,1 0 0 0 0 0 0 0 0 1,8,categoryA,f,,,0,6,6,0,1,0,14,0,,,,,,,,,,,,,,,,,,,None,0,,,,,,,,,,,,,,,,,,,,,,,,,,,,,,,,14,001,2021_Sep_14_1512,joplin1,2021.2.3,59.7138959155982,
_train_cond.csv,1 1 1 0 1 1 0 1 1 1,2,categoryB,j,,,0,6,6,0,1,1,15,11,,,,,,,,,,,,,,,,,,,None,0,,,,,,,,,,,,,,,,,,,,,,,,,,,,,,,,14,001,2021_Sep_14_1512,joplin1,2021.2.3,59.7138959155982,
_train_cond.csv,0 0 1 0 1 1 0 1 0 0,6,categoryA,f,,,0,6,6,0,1,2,16,2,,,,,,,,,,,,,,,,,,,None,0,,,,,,,,,,,,,,,,,,,,,,,,,,,,,,,,14,001,2021_Sep_14_1512,joplin1,2021.2.3,59.7138959155982,
_train_cond.csv,1 1 1 0 0 0 0 1 1 1,4,categoryB,j,,,0,6,6,0,1,3,17,10,,,,,,,,,,,,,,,,,,,None,0,,,,,,,,,,,,,,,,,,,,,,,,,,,,,,,,14,001,2021_Sep_14_1512,joplin1,2021.2.3,59.7138959155982,
_train_cond.csv,0 0 0 1 1 1 1 0 0 0,6,categoryA,f,,,0,6,6,0,1,4,18,3,,,,,,,,,,,,,,,,,,,None,0,,,,,,,,,,,,,,,,,,,,,,,,,,,,,,,,14,001,2021_Sep_14_1512,joplin1,2021.2.3,59.7138959155982,
_train_cond.csv,0 1 0 0 0 0 0 0 1 0,8,categoryA,f,,,0,6,6,0,1,5,19,1,,,,,,,,,,,,,,,,,,,None,0,,,,,,,,,,,,,,,,,,,,,,,,,,,,,,,,14,001,2021_Sep_14_1512,joplin1,2021.2.3,59.7138959155982,
_train_cond.csv,0 0 1 1 1 1 1 1 0 0,4,categoryB,j,,,0,6,6,0,1,6,20,13,,,,,,,,,,,,,,,,,,,None,0,,,,,,,,,,,,,,,,,,,,,,,,,,,,,,,,14,001,2021_Sep_14_1512,joplin1,2021.2.3,59.7138959155982,
_train_cond.csv,0 0 0 1 0 0 1 0 0 0,8,categoryA,f,,,0,6,6,0,1,7,21,4,,,,,,,,,,,,,,,,,,,None,0,,,,,,,,,,,,,,,,,,,,,,,,,,,,,,,,14,001,2021_Sep_14_1512,joplin1,2021.2.3,59.7138959155982,
_train_cond.csv,0 0 1 0 0 0 0 1 0 0,8,categoryA,f,,,0,6,6,0,1,8,22,5,,,,,,,,,,,,,,,,,,,None,0,,,,,,,,,,,,,,,,,,,,,,,,,,,,,,,,14,001,2021_Sep_14_1512,joplin1,2021.2.3,59.7138959155982,
_train_cond.csv,0 1 1 1 1 1 1 1 1 0,2,categoryB,j,,,0,6,6,0,1,9,23,7,,,,,,,,,,,,,,,,,,,None,0,,,,,,,,,,,,,,,,,,,,,,,,,,,,,,,,14,001,2021_Sep_14_1512,joplin1,2021.2.3,59.7138959155982,
_train_cond.csv,1 1 0 1 1 1 1 0 1 1,2,categoryB,j,,,0,6,6,0,1,10,24,12,,,,,,,,,,,,,,,,,,,None,0,,,,,,,,,,,,,,,,,,,,,,,,,,,,,,,,14,001,2021_Sep_14_1512,joplin1,2021.2.3,59.7138959155982,
_train_cond.csv,1 1 0 0 0 0 0 0 1 1,6,categoryA,f,,,0,6,6,0,1,11,25,6,,,,,,,,,,,,,,,,,,,None,0,,,,,,,,,,,,,,,,,,,,,,,,,,,,,,,,14,001,2021_Sep_14_1512,joplin1,2021.2.3,59.7138959155982,
_train_cond.csv,1 1 0 1 0 0 1 0 1 1,4,categoryB,j,,,0,6,6,0,1,12,26,9,,,,,,,,,,,,,,,,,,,None,0,,,,,,,,,,,,,,,,,,,,,,,,,,,,,,,,14,001,2021_Sep_14_1512,joplin1,2021.2.3,59.7138959155982,
_train_cond.csv,1 0 1 1 1 1 1 1 0 1,2,categoryB,j,,,0,6,6,0,1,13,27,8,,,,,,,,,,,,,,,,,,,None,0,,,,,,,,,,,,,,,,,,,,,,,,,,,,,,,,14,001,2021_Sep_14_1512,joplin1,2021.2.3,59.7138959155982,
_train_cond.csv,1 1 0 1 1 1 1 0 1 1,2,categoryB,j,,,0,6,6,0,2,0,28,12,,,,,,,,,,,,,,,,,,,None,0,,,,,,,,,,,,,,,,,,,,,,,,,,,,,,,,14,001,2021_Sep_14_1512,joplin1,2021.2.3,59.7138959155982,
_train_cond.csv,1 1 1 0 0 0 0 1 1 1,4,categoryB,j,,,0,6,6,0,2,1,29,10,,,,,,,,,,,,,,,,,,,None,0,,,,,,,,,,,,,,,,,,,,,,,,,,,,,,,,14,001,2021_Sep_14_1512,joplin1,2021.2.3,59.7138959155982,
_train_cond.csv,0 0 0 1 1 1 1 0 0 0,6,categoryA,f,,,0,6,6,0,2,2,30,3,,,,,,,,,,,,,,,,,,,None,0,,,,,,,,,,,,,,,,,,,,,,,,,,,,,,,,14,001,2021_Sep_14_1512,joplin1,2021.2.3,59.7138959155982,
_train_cond.csv,1 1 0 1 0 0 1 0 1 1,4,categoryB,j,,,0,6,6,0,2,3,31,9,,,,,,,,,,,,,,,,,,,None,0,,,,,,,,,,,,,,,,,,,,,,,,,,,,,,,,14,001,2021_Sep_14_1512,joplin1,2021.2.3,59.7138959155982,
_train_cond.csv,0 0 1 1 1 1 1 1 0 0,4,categoryB,j,,,0,6,6,0,2,4,32,13,,,,,,,,,,,,,,,,,,,None,0,,,,,,,,,,,,,,,,,,,,,,,,,,,,,,,,14,001,2021_Sep_14_1512,joplin1,2021.2.3,59.7138959155982,
_train_cond.csv,1 0 1 1 1 1 1 1 0 1,2,categoryB,j,,,0,6,6,0,2,5,33,8,,,,,,,,,,,,,,,,,,,None,0,,,,,,,,,,,,,,,,,,,,,,,,,,,,,,,,14,001,2021_Sep_14_1512,joplin1,2021.2.3,59.7138959155982,
_train_cond.csv,0 1 0 0 0 0 0 0 1 0,8,categoryA,f,,,0,6,6,0,2,6,34,1,,,,,,,,,,,,,,,,,,,None,0,,,,,,,,,,,,,,,,,,,,,,,,,,,,,,,,14,001,2021_Sep_14_1512,joplin1,2021.2.3,59.7138959155982,
_train_cond.csv,0 0 1 0 0 0 0 1 0 0,8,categoryA,f,,,0,6,6,0,2,7,35,5,,,,,,,,,,,,,,,,,,,None,0,,,,,,,,,,,,,,,,,,,,,,,,,,,,,,,,14,001,2021_Sep_14_1512,joplin1,2021.2.3,59.7138959155982,
_train_cond.csv,1 1 1 0 1 1 0 1 1 1,2,categoryB,j,,,0,6,6,0,2,8,36,11,,,,,,,,,,,,,,,,,,,None,0,,,,,,,,,,,,,,,,,,,,,,,,,,,,,,,,14,001,2021_Sep_14_1512,joplin1,2021.2.3,59.7138959155982,
_train_cond.csv,0 0 1 0 1 1 0 1 0 0,6,categoryA,f,,,0,6,6,0,2,9,37,2,,,,,,,,,,,,,,,,,,,None,0,,,,,,,,,,,,,,,,,,,,,,,,,,,,,,,,14,001,2021_Sep_14_1512,joplin1,2021.2.3,59.7138959155982,
_train_cond.csv,0 0 0 1 0 0 1 0 0 0,8,categoryA,f,,,0,6,6,0,2,10,38,4,,,,,,,,,,,,,,,,,,,None,0,,,,,,,,,,,,,,,,,,,,,,,,,,,,,,,,14,001,2021_Sep_14_1512,joplin1,2021.2.3,59.7138959155982,
_train_cond.csv,0 1 1 1 1 1 1 1 1 0,2,categoryB,j,,,0,6,6,0,2,11,39,7,,,,,,,,,,,,,,,,,,,None,0,,,,,,,,,,,,,,,,,,,,,,,,,,,,,,,,14,001,2021_Sep_14_1512,joplin1,2021.2.3,59.7138959155982,
_train_cond.csv,1 0 0 0 0 0 0 0 0 1,8,categoryA,f,,,0,6,6,0,2,12,40,0,,,,,,,,,,,,,,,,,,,None,0,,,,,,,,,,,,,,,,,,,,,,,,,,,,,,,,14,001,2021_Sep_14_1512,joplin1,2021.2.3,59.7138959155982,
_train_cond.csv,1 1 0 0 0 0 0 0 1 1,6,categoryA,f,,,0,6,6,0,2,13,41,6,,,,,,,,,,,,,,,,,,,None,0,,,,,,,,,,,,,,,,,,,,,,,,,,,,,,,,14,001,2021_Sep_14_1512,joplin1,2021.2.3,59.7138959155982,
_train_cond.csv,,,,,,,0,6,6,0,,,,,,,,,,,,,,,,,,,,,,,,,,space,6.808617707996746,,,,,,,,,,,,,,,,,,,,,,,,,,,,,14,001,2021_Sep_14_1512,joplin1,2021.2.3,59.7138959155982,
_train_cond.csv,1 0 1 1 1 1 1 1 0 1,2,categoryB,j,,,0,7,7,1,0,0,0,8,,,,,,,,,,,,,,,,,,,None,0,,,,,,,,,,,,,,,,,,,,,,,,,,,,,,,,14,001,2021_Sep_14_1512,joplin1,2021.2.3,59.7138959155982,
_train_cond.csv,0 0 0 1 0 0 1 0 0 0,8,categoryA,f,,,0,7,7,1,0,1,1,4,,,,,,,,,,,,,,,,,,,None,0,,,,,,,,,,,,,,,,,,,,,,,,,,,,,,,,14,001,2021_Sep_14_1512,joplin1,2021.2.3,59.7138959155982,
_train_cond.csv,1 1 1 0 0 0 0 1 1 1,4,categoryB,j,,,0,7,7,1,0,2,2,10,,,,,,,,,,,,,,,,,,,None,0,,,,,,,,,,,,,,,,,,,,,,,,,,,,,,,,14,001,2021_Sep_14_1512,joplin1,2021.2.3,59.7138959155982,
_train_cond.csv,1 1 1 0 1 1 0 1 1 1,2,categoryB,j,,,0,7,7,1,0,3,3,11,,,,,,,,,,,,,,,,,,,None,0,,,,,,,,,,,,,,,,,,,,,,,,,,,,,,,,14,001,2021_Sep_14_1512,joplin1,2021.2.3,59.7138959155982,
_train_cond.csv,0 0 1 0 0 0 0 1 0 0,8,categoryA,f,,,0,7,7,1,0,4,4,5,,,,,,,,,,,,,,,,,,,None,0,,,,,,,,,,,,,,,,,,,,,,,,,,,,,,,,14,001,2021_Sep_14_1512,joplin1,2021.2.3,59.7138959155982,
_train_cond.csv,1 0 0 0 0 0 0 0 0 1,8,categoryA,f,,,0,7,7,1,0,5,5,0,,,,,,,,,,,,,,,,,,,None,0,,,,,,,,,,,,,,,,,,,,,,,,,,,,,,,,14,001,2021_Sep_14_1512,joplin1,2021.2.3,59.7138959155982,
_train_cond.csv,1 1 0 1 1 1 1 0 1 1,2,categoryB,j,,,0,7,7,1,0,6,6,12,,,,,,,,,,,,,,,,,,,None,0,,,,,,,,,,,,,,,,,,,,,,,,,,,,,,,,14,001,2021_Sep_14_1512,joplin1,2021.2.3,59.7138959155982,
_train_cond.csv,0 0 1 1 1 1 1 1 0 0,4,categoryB,j,,,0,7,7,1,0,7,7,13,,,,,,,,,,,,,,,,,,,None,0,,,,,,,,,,,,,,,,,,,,,,,,,,,,,,,,14,001,2021_Sep_14_1512,joplin1,2021.2.3,59.7138959155982,
_train_cond.csv,0 1 0 0 0 0 0 0 1 0,8,categoryA,f,,,0,7,7,1,0,8,8,1,,,,,,,,,,,,,,,,,,,None,0,,,,,,,,,,,,,,,,,,,,,,,,,,,,,,,,14,001,2021_Sep_14_1512,joplin1,2021.2.3,59.7138959155982,
_train_cond.csv,1 1 0 1 0 0 1 0 1 1,4,categoryB,j,,,0,7,7,1,0,9,9,9,,,,,,,,,,,,,,,,,,,None,0,,,,,,,,,,,,,,,,,,,,,,,,,,,,,,,,14,001,2021_Sep_14_1512,joplin1,2021.2.3,59.7138959155982,
_train_cond.csv,0 1 1 1 1 1 1 1 1 0,2,categoryB,j,,,0,7,7,1,0,10,10,7,,,,,,,,,,,,,,,,,,,None,0,,,,,,,,,,,,,,,,,,,,,,,,,,,,,,,,14,001,2021_Sep_14_1512,joplin1,2021.2.3,59.7138959155982,
_train_cond.csv,0 0 1 0 1 1 0 1 0 0,6,categoryA,f,,,0,7,7,1,0,11,11,2,,,,,,,,,,,,,,,,,,,None,0,,,,,,,,,,,,,,,,,,,,,,,,,,,,,,,,14,001,2021_Sep_14_1512,joplin1,2021.2.3,59.7138959155982,
_train_cond.csv,0 0 0 1 1 1 1 0 0 0,6,categoryA,f,,,0,7,7,1,0,12,12,3,,,,,,,,,,,,,,,,,,,None,0,,,,,,,,,,,,,,,,,,,,,,,,,,,,,,,,14,001,2021_Sep_14_1512,joplin1,2021.2.3,59.7138959155982,
_train_cond.csv,1 1 0 0 0 0 0 0 1 1,6,categoryA,f,,,0,7,7,1,0,13,13,6,,,,,,,,,,,,,,,,,,,None,0,,,,,,,,,,,,,,,,,,,,,,,,,,,,,,,,14,001,2021_Sep_14_1512,joplin1,2021.2.3,59.7138959155982,
_train_cond.csv,1 0 0 0 0 0 0 0 0 1,8,categoryA,f,,,0,7,7,1,1,0,14,0,,,,,,,,,,,,,,,,,,,None,0,,,,,,,,,,,,,,,,,,,,,,,,,,,,,,,,14,001,2021_Sep_14_1512,joplin1,2021.2.3,59.7138959155982,
_train_cond.csv,0 0 0 1 1 1 1 0 0 0,6,categoryA,f,,,0,7,7,1,1,1,15,3,,,,,,,,,,,,,,,,,,,None,0,,,,,,,,,,,,,,,,,,,,,,,,,,,,,,,,14,001,2021_Sep_14_1512,joplin1,2021.2.3,59.7138959155982,
_train_cond.csv,1 1 1 0 0 0 0 1 1 1,4,categoryB,j,,,0,7,7,1,1,2,16,10,,,,,,,,,,,,,,,,,,,None,0,,,,,,,,,,,,,,,,,,,,,,,,,,,,,,,,14,001,2021_Sep_14_1512,joplin1,2021.2.3,59.7138959155982,
_train_cond.csv,0 0 0 1 0 0 1 0 0 0,8,categoryA,f,,,0,7,7,1,1,3,17,4,,,,,,,,,,,,,,,,,,,None,0,,,,,,,,,,,,,,,,,,,,,,,,,,,,,,,,14,001,2021_Sep_14_1512,joplin1,2021.2.3,59.7138959155982,
_train_cond.csv,0 1 0 0 0 0 0 0 1 0,8,categoryA,f,,,0,7,7,1,1,4,18,1,,,,,,,,,,,,,,,,,,,None,0,,,,,,,,,,,,,,,,,,,,,,,,,,,,,,,,14,001,2021_Sep_14_1512,joplin1,2021.2.3,59.7138959155982,
_train_cond.csv,0 1 1 1 1 1 1 1 1 0,2,categoryB,j,,,0,7,7,1,1,5,19,7,,,,,,,,,,,,,,,,,,,None,0,,,,,,,,,,,,,,,,,,,,,,,,,,,,,,,,14,001,2021_Sep_14_1512,joplin1,2021.2.3,59.7138959155982,
_train_cond.csv,0 0 1 0 0 0 0 1 0 0,8,categoryA,f,,,0,7,7,1,1,6,20,5,,,,,,,,,,,,,,,,,,,None,0,,,,,,,,,,,,,,,,,,,,,,,,,,,,,,,,14,001,2021_Sep_14_1512,joplin1,2021.2.3,59.7138959155982,
_train_cond.csv,0 0 1 0 1 1 0 1 0 0,6,categoryA,f,,,0,7,7,1,1,7,21,2,,,,,,,,,,,,,,,,,,,None,0,,,,,,,,,,,,,,,,,,,,,,,,,,,,,,,,14,001,2021_Sep_14_1512,joplin1,2021.2.3,59.7138959155982,
_train_cond.csv,0 0 1 1 1 1 1 1 0 0,4,categoryB,j,,,0,7,7,1,1,8,22,13,,,,,,,,,,,,,,,,,,,None,0,,,,,,,,,,,,,,,,,,,,,,,,,,,,,,,,14,001,2021_Sep_14_1512,joplin1,2021.2.3,59.7138959155982,
_train_cond.csv,1 1 0 1 1 1 1 0 1 1,2,categoryB,j,,,0,7,7,1,1,9,23,12,,,,,,,,,,,,,,,,,,,None,0,,,,,,,,,,,,,,,,,,,,,,,,,,,,,,,,14,001,2021_Sep_14_1512,joplin1,2021.2.3,59.7138959155982,
_train_cond.csv,1 1 0 1 0 0 1 0 1 1,4,categoryB,j,,,0,7,7,1,1,10,24,9,,,,,,,,,,,,,,,,,,,None,0,,,,,,,,,,,,,,,,,,,,,,,,,,,,,,,,14,001,2021_Sep_14_1512,joplin1,2021.2.3,59.7138959155982,
_train_cond.csv,1 0 1 1 1 1 1 1 0 1,2,categoryB,j,,,0,7,7,1,1,11,25,8,,,,,,,,,,,,,,,,,,,None,0,,,,,,,,,,,,,,,,,,,,,,,,,,,,,,,,14,001,2021_Sep_14_1512,joplin1,2021.2.3,59.7138959155982,
_train_cond.csv,1 1 0 0 0 0 0 0 1 1,6,categoryA,f,,,0,7,7,1,1,12,26,6,,,,,,,,,,,,,,,,,,,None,0,,,,,,,,,,,,,,,,,,,,,,,,,,,,,,,,14,001,2021_Sep_14_1512,joplin1,2021.2.3,59.7138959155982,
_train_cond.csv,1 1 1 0 1 1 0 1 1 1,2,categoryB,j,,,0,7,7,1,1,13,27,11,,,,,,,,,,,,,,,,,,,None,0,,,,,,,,,,,,,,,,,,,,,,,,,,,,,,,,14,001,2021_Sep_14_1512,joplin1,2021.2.3,59.7138959155982,
_train_cond.csv,0 1 1 1 1 1 1 1 1 0,2,categoryB,j,,,0,7,7,1,2,0,28,7,,,,,,,,,,,,,,,,,,,None,0,,,,,,,,,,,,,,,,,,,,,,,,,,,,,,,,14,001,2021_Sep_14_1512,joplin1,2021.2.3,59.7138959155982,
_train_cond.csv,0 0 0 1 0 0 1 0 0 0,8,categoryA,f,,,0,7,7,1,2,1,29,4,,,,,,,,,,,,,,,,,,,None,0,,,,,,,,,,,,,,,,,,,,,,,,,,,,,,,,14,001,2021_Sep_14_1512,joplin1,2021.2.3,59.7138959155982,
_train_cond.csv,0 0 0 1 1 1 1 0 0 0,6,categoryA,f,,,0,7,7,1,2,2,30,3,,,,,,,,,,,,,,,,,,,None,0,,,,,,,,,,,,,,,,,,,,,,,,,,,,,,,,14,001,2021_Sep_14_1512,joplin1,2021.2.3,59.7138959155982,
_train_cond.csv,0 0 1 0 0 0 0 1 0 0,8,categoryA,f,,,0,7,7,1,2,3,31,5,,,,,,,,,,,,,,,,,,,None,0,,,,,,,,,,,,,,,,,,,,,,,,,,,,,,,,14,001,2021_Sep_14_1512,joplin1,2021.2.3,59.7138959155982,
_train_cond.csv,1 1 1 0 0 0 0 1 1 1,4,categoryB,j,,,0,7,7,1,2,4,32,10,,,,,,,,,,,,,,,,,,,None,0,,,,,,,,,,,,,,,,,,,,,,,,,,,,,,,,14,001,2021_Sep_14_1512,joplin1,2021.2.3,59.7138959155982,
_train_cond.csv,0 0 1 1 1 1 1 1 0 0,4,categoryB,j,,,0,7,7,1,2,5,33,13,,,,,,,,,,,,,,,,,,,None,0,,,,,,,,,,,,,,,,,,,,,,,,,,,,,,,,14,001,2021_Sep_14_1512,joplin1,2021.2.3,59.7138959155982,
_train_cond.csv,1 1 0 0 0 0 0 0 1 1,6,categoryA,f,,,0,7,7,1,2,6,34,6,,,,,,,,,,,,,,,,,,,None,0,,,,,,,,,,,,,,,,,,,,,,,,,,,,,,,,14,001,2021_Sep_14_1512,joplin1,2021.2.3,59.7138959155982,
_train_cond.csv,1 1 0 1 1 1 1 0 1 1,2,categoryB,j,,,0,7,7,1,2,7,35,12,,,,,,,,,,,,,,,,,,,None,0,,,,,,,,,,,,,,,,,,,,,,,,,,,,,,,,14,001,2021_Sep_14_1512,joplin1,2021.2.3,59.7138959155982,
_train_cond.csv,0 0 1 0 1 1 0 1 0 0,6,categoryA,f,,,0,7,7,1,2,8,36,2,,,,,,,,,,,,,,,,,,,None,0,,,,,,,,,,,,,,,,,,,,,,,,,,,,,,,,14,001,2021_Sep_14_1512,joplin1,2021.2.3,59.7138959155982,
_train_cond.csv,1 0 1 1 1 1 1 1 0 1,2,categoryB,j,,,0,7,7,1,2,9,37,8,,,,,,,,,,,,,,,,,,,None,0,,,,,,,,,,,,,,,,,,,,,,,,,,,,,,,,14,001,2021_Sep_14_1512,joplin1,2021.2.3,59.7138959155982,
_train_cond.csv,1 1 0 1 0 0 1 0 1 1,4,categoryB,j,,,0,7,7,1,2,10,38,9,,,,,,,,,,,,,,,,,,,None,0,,,,,,,,,,,,,,,,,,,,,,,,,,,,,,,,14,001,2021_Sep_14_1512,joplin1,2021.2.3,59.7138959155982,
_train_cond.csv,0 1 0 0 0 0 0 0 1 0,8,categoryA,f,,,0,7,7,1,2,11,39,1,,,,,,,,,,,,,,,,,,,None,0,,,,,,,,,,,,,,,,,,,,,,,,,,,,,,,,14,001,2021_Sep_14_1512,joplin1,2021.2.3,59.7138959155982,
_train_cond.csv,1 0 0 0 0 0 0 0 0 1,8,categoryA,f,,,0,7,7,1,2,12,40,0,,,,,,,,,,,,,,,,,,,None,0,,,,,,,,,,,,,,,,,,,,,,,,,,,,,,,,14,001,2021_Sep_14_1512,joplin1,2021.2.3,59.7138959155982,
_train_cond.csv,1 1 1 0 1 1 0 1 1 1,2,categoryB,j,,,0,7,7,1,2,13,41,11,,,,,,,,,,,,,,,,,,,None,0,,,,,,,,,,,,,,,,,,,,,,,,,,,,,,,,14,001,2021_Sep_14_1512,joplin1,2021.2.3,59.7138959155982,
_train_cond.csv,,,,,,,0,7,7,1,,,,,,,,,,,,,,,,,,,,,,,,,,space,4.4208757919986965,,,,,,,,,,,,,,,,,,,,,,,,,,,,,14,001,2021_Sep_14_1512,joplin1,2021.2.3,59.7138959155982,
,,,,,,,,,,,,,,,,,,,,,,,,,,,,,,,,,,,,,,q,21.207565332999366,,,,,,,,,,,,,,,,,,,,,,,,,,,14,001,2021_Sep_14_1512,joplin1,2021.2.3,59.7138959155982,
,,,,,,,,,,,,,,,,,,,,,,,,,,,,,,,,,,,,,,,,j,0.8695875000012165,,,,,,,,,,,,,,,,,,,,,,,,,14,001,2021_Sep_14_1512,joplin1,2021.2.3,59.7138959155982,
,,,,,,,,,,,,,,,,,,,,,,,,,,,,,,,,,,,,,,,,,,space,0.4148488329992688,,,,,,,,,,,,,,,,,,,,,,,14,001,2021_Sep_14_1512,joplin1,2021.2.3,59.7138959155982,
,,,,,,,,,,,,,,,,,,,,,,,,,,,,,,,,,,,,,,,,,,,,space,0.7554713749996154,,,,,,,,,,,,,,,,,,,,,14,001,2021_Sep_14_1512,joplin1,2021.2.3,59.7138959155982,
,1 0 1 1 1 1 0 1 1 1,2,categoryB,j,genfile1.csv,0,,,,,,,,,0,0,0,0,0,0,0,49,,,,,,,,,,,,,,,,,,,,,,,,f,0,1.9849775419970683,,,,,,,,,,,,,,,,,,14,001,2021_Sep_14_1512,joplin1,2021.2.3,59.7138959155982,
,1 1 0 0 0 0 1 1 1 1,4,categoryB,j,genfile1.csv,0,,,,,,,,,0,0,0,0,0,1,1,38,,,,,,,,,,,,,,,,,,,,,,,,None,0,,,,,,,,,,,,,,,,,,,14,001,2021_Sep_14_1512,joplin1,2021.2.3,59.7138959155982,
,1 1 1 1 1 0 0 0 1 1,3,categoryB,j,genfile1.csv,0,,,,,,,,,0,0,0,0,0,2,2,44,,,,,,,,,,,,,,,,,,,,,,,,None,0,,,,,,,,,,,,,,,,,,,14,001,2021_Sep_14_1512,joplin1,2021.2.3,59.7138959155982,
,0 1 0 0 0 0 0 0 1 0,8,categoryA,f,genfile1.csv,1,,,,,,,,,0,0,0,0,0,3,3,3,,,,,,,,,,,,,,,,,,,,,,,,None,0,,,,,,,,,,,,,,,,,,,14,001,2021_Sep_14_1512,joplin1,2021.2.3,59.7138959155982,
,0 1 0 0 0 0 0 0 0 0,9,categoryA,f,genfile1.csv,0,,,,,,,,,0,0,0,0,0,4,4,19,,,,,,,,,,,,,,,,,,,,,,,,None,0,,,,,,,,,,,,,,,,,,,14,001,2021_Sep_14_1512,joplin1,2021.2.3,59.7138959155982,
,1 0 1 0 0 1 1 1 0 1,4,categoryB,j,genfile1.csv,0,,,,,,,,,0,0,0,0,0,5,5,40,,,,,,,,,,,,,,,,,,,,,,,,None,0,,,,,,,,,,,,,,,,,,,14,001,2021_Sep_14_1512,joplin1,2021.2.3,59.7138959155982,
,0 0 1 1 1 1 1 1 0 0,4,categoryB,j,genfile1.csv,1,,,,,,,,,0,0,0,0,0,6,6,15,,,,,,,,,,,,,,,,,,,,,,,,None,0,,,,,,,,,,,,,,,,,,,14,001,2021_Sep_14_1512,joplin1,2021.2.3,59.7138959155982,
,1 1 1 1 1 1 1 1 1 1,0,categoryB,j,genfile1.csv,0,,,,,,,,,0,0,0,0,0,7,7,1,,,,,,,,,,,,,,,,,,,,,,,,None,0,,,,,,,,,,,,,,,,,,,14,001,2021_Sep_14_1512,joplin1,2021.2.3,59.7138959155982,
,0 0 0 0 0 0 0 0 0 0,10,categoryA,f,genfile1.csv,0,,,,,,,,,0,0,0,0,0,8,8,0,,,,,,,,,,,,,,,,,,,,,,,,None,0,,,,,,,,,,,,,,,,,,,14,001,2021_Sep_14_1512,joplin1,2021.2.3,59.7138959155982,
,0 0 1 0 0 1 0 0 1 0,7,categoryA,f,genfile1.csv,0,,,,,,,,,0,0,0,0,0,9,9,29,,,,,,,,,,,,,,,,,,,,,,,,None,0,,,,,,,,,,,,,,,,,,,14,001,2021_Sep_14_1512,joplin1,2021.2.3,59.7138959155982,
,0 0 0 0 0 0 1 0 0 0,9,categoryA,f,genfile1.csv,0,,,,,,,,,0,0,0,0,0,10,10,20,,,,,,,,,,,,,,,,,,,,,,,,None,0,,,,,,,,,,,,,,,,,,,14,001,2021_Sep_14_1512,joplin1,2021.2.3,59.7138959155982,
,1 1 1 0 0 0 0 0 1 0,6,categoryA,f,genfile1.csv,0,,,,,,,,,0,0,0,0,0,11,11,31,,,,,,,,,,,,,,,,,,,,,,,,None,0,,,,,,,,,,,,,,,,,,,14,001,2021_Sep_14_1512,joplin1,2021.2.3,59.7138959155982,
,0 0 0 0 1 0 0 0 0 0,9,categoryA,f,genfile1.csv,0,,,,,,,,,0,0,0,0,0,12,12,17,,,,,,,,,,,,,,,,,,,,,,,,None,0,,,,,,,,,,,,,,,,,,,14,001,2021_Sep_14_1512,joplin1,2021.2.3,59.7138959155982,
,0 1 1 1 1 1 1 1 1 1,1,categoryB,j,genfile1.csv,0,,,,,,,,,0,0,0,0,0,13,13,54,,,,,,,,,,,,,,,,,,,,,,,,None,0,,,,,,,,,,,,,,,,,,,14,001,2021_Sep_14_1512,joplin1,2021.2.3,59.7138959155982,
,1 1 1 1 1 1 0 1 1 1,1,categoryB,j,genfile1.csv,0,,,,,,,,,0,0,0,0,0,14,14,55,,,,,,,,,,,,,,,,,,,,,,,,None,0,,,,,,,,,,,,,,,,,,,14,001,2021_Sep_14_1512,joplin1,2021.2.3,59.7138959155982,
,0 1 1 1 1 1 1 1 1 0,2,categoryB,j,genfile1.csv,1,,,,,,,,,0,0,0,0,0,15,15,9,,,,,,,,,,,,,,,,,,,,,,,,None,0,,,,,,,,,,,,,,,,,,,14,001,2021_Sep_14_1512,joplin1,2021.2.3,59.7138959155982,
,1 0 1 0 0 1 0 0 0 1,6,categoryA,f,genfile1.csv,0,,,,,,,,,0,0,0,0,0,16,16,32,,,,,,,,,,,,,,,,,,,,,,,,None,0,,,,,,,,,,,,,,,,,,,14,001,2021_Sep_14_1512,joplin1,2021.2.3,59.7138959155982,
,1 0 0 0 0 1 0 0 0 1,7,categoryA,f,genfile1.csv,0,,,,,,,,,0,0,0,0,0,17,17,27,,,,,,,,,,,,,,,,,,,,,,,,None,0,,,,,,,,,,,,,,,,,,,14,001,2021_Sep_14_1512,joplin1,2021.2.3,59.7138959155982,
,1 1 1 0 0 1 1 1 0 1,3,categoryB,j,genfile1.csv,0,,,,,,,,,0,0,0,0,0,18,18,45,,,,,,,,,,,,,,,,,,,,,,,,None,0,,,,,,,,,,,,,,,,,,,14,001,2021_Sep_14_1512,joplin1,2021.2.3,59.7138959155982,
,1 1 0 0 0 0 0 0 1 1,6,categoryA,f,genfile1.csv,1,,,,,,,,,0,0,0,0,0,19,19,8,,,,,,,,,,,,,,,,,,,,,,,,None,0,,,,,,,,,,,,,,,,,,,14,001,2021_Sep_14_1512,joplin1,2021.2.3,59.7138959155982,
,0 0 1 0 1 1 0 1 0 0,6,categoryA,f,genfile1.csv,1,,,,,,,,,0,0,0,0,0,20,20,4,,,,,,,,,,,,,,,,,,,,,,,,None,0,,,,,,,,,,,,,,,,,,,14,001,2021_Sep_14_1512,joplin1,2021.2.3,59.7138959155982,
,1 0 0 0 0 1 0 0 0 0,8,categoryA,f,genfile1.csv,0,,,,,,,,,0,0,0,0,0,21,21,23,,,,,,,,,,,,,,,,,,,,,,,,None,0,,,,,,,,,,,,,,,,,,,14,001,2021_Sep_14_1512,joplin1,2021.2.3,59.7138959155982,
,0 0 1 0 1 1 0 0 0 0,7,categoryA,f,genfile1.csv,0,,,,,,,,,0,0,0,0,0,22,22,28,,,,,,,,,,,,,,,,,,,,,,,,None,0,,,,,,,,,,,,,,,,,,,14,001,2021_Sep_14_1512,joplin1,2021.2.3,59.7138959155982,
,1 1 1 0 0 0 0 1 1 1,4,categoryB,j,genfile1.csv,1,,,,,,,,,0,0,0,0,0,23,23,12,,,,,,,,,,,,,,,,,,,,,,,,None,0,,,,,,,,,,,,,,,,,,,14,001,2021_Sep_14_1512,joplin1,2021.2.3,59.7138959155982,
,1 1 0 1 1 0 0 1 0 1,4,categoryB,j,genfile1.csv,0,,,,,,,,,0,0,0,0,0,24,24,39,,,,,,,,,,,,,,,,,,,,,,,,None,0,,,,,,,,,,,,,,,,,,,14,001,2021_Sep_14_1512,joplin1,2021.2.3,59.7138959155982,
,1 1 0 1 1 1 0 0 1 0,4,categoryB,j,genfile1.csv,0,,,,,,,,,0,0,0,0,0,25,25,37,,,,,,,,,,,,,,,,,,,,,,,,None,0,,,,,,,,,,,,,,,,,,,14,001,2021_Sep_14_1512,joplin1,2021.2.3,59.7138959155982,
,0 1 0 1 1 1 1 0 1 1,3,categoryB,j,genfile1.csv,0,,,,,,,,,0,0,0,0,0,26,26,41,,,,,,,,,,,,,,,,,,,,,,,,None,0,,,,,,,,,,,,,,,,,,,14,001,2021_Sep_14_1512,joplin1,2021.2.3,59.7138959155982,
,0 0 0 1 1 1 1 0 0 0,6,categoryA,f,genfile1.csv,1,,,,,,,,,0,0,0,0,0,27,27,5,,,,,,,,,,,,,,,,,,,,,,,,None,0,,,,,,,,,,,,,,,,,,,14,001,2021_Sep_14_1512,joplin1,2021.2.3,59.7138959155982,
,1 0 0 1 0 1 0 0 0 1,6,categoryA,f,genfile1.csv,0,,,,,,,,,0,0,0,0,0,28,28,33,,,,,,,,,,,,,,,,,,,,,,,,None,0,,,,,,,,,,,,,,,,,,,14,001,2021_Sep_14_1512,joplin1,2021.2.3,59.7138959155982,
,1 1 0 1 0 0 1 0 1 1,4,categoryB,j,genfile1.csv,1,,,,,,,,,0,0,0,0,0,29,29,11,,,,,,,,,,,,,,,,,,,,,,,,None,0,,,,,,,,,,,,,,,,,,,14,001,2021_Sep_14_1512,joplin1,2021.2.3,59.7138959155982,
,1 0 0 1 0 0 0 0 0 0,8,categoryA,f,genfile1.csv,0,,,,,,,,,0,0,0,0,0,30,30,24,,,,,,,,,,,,,,,,,,,,,,,,None,0,,,,,,,,,,,,,,,,,,,14,001,2021_Sep_14_1512,joplin1,2021.2.3,59.7138959155982,
,1 0 1 0 0 0 0 1 1 0,6,categoryA,f,genfile1.csv,0,,,,,,,,,0,0,0,0,0,31,31,35,,,,,,,,,,,,,,,,,,,,,,,,None,0,,,,,,,,,,,,,,,,,,,14,001,2021_Sep_14_1512,joplin1,2021.2.3,59.7138959155982,
,1 0 0 0 1 0 0 0 1 0,7,categoryA,f,genfile1.csv,0,,,,,,,,,0,0,0,0,0,32,32,30,,,,,,,,,,,,,,,,,,,,,,,,None,0,,,,,,,,,,,,,,,,,,,14,001,2021_Sep_14_1512,joplin1,2021.2.3,59.7138959155982,
,1 0 0 0 0 0 0 0 0 1,8,categoryA,f,genfile1.csv,1,,,,,,,,,0,0,0,0,0,33,33,2,,,,,,,,,,,,,,,,,,,,,,,,None,0,,,,,,,,,,,,,,,,,,,14,001,2021_Sep_14_1512,joplin1,2021.2.3,59.7138959155982,
,0 0 0 0 0 0 1 0 1 1,7,categoryA,f,genfile1.csv,0,,,,,,,,,0,0,0,0,0,34,34,26,,,,,,,,,,,,,,,,,,,,,,,,None,0,,,,,,,,,,,,,,,,,,,14,001,2021_Sep_14_1512,joplin1,2021.2.3,59.7138959155982,
,1 1 1 1 1 1 1 1 0 0,2,categoryB,j,genfile1.csv,0,,,,,,,,,0,0,0,0,0,35,35,46,,,,,,,,,,,,,,,,,,,,,,,,None,0,,,,,,,,,,,,,,,,,,,14,001,2021_Sep_14_1512,joplin1,2021.2.3,59.7138959155982,
,1 0 1 1 1 0 1 1 0 1,3,categoryB,j,genfile1.csv,0,,,,,,,,,0,0,0,0,0,36,36,42,,,,,,,,,,,,,,,,,,,,,,,,None,0,,,,,,,,,,,,,,,,,,,14,001,2021_Sep_14_1512,joplin1,2021.2.3,59.7138959155982,
,1 1 1 0 1 1 1 0 1 1,2,categoryB,j,genfile1.csv,0,,,,,,,,,0,0,0,0,0,37,37,50,,,,,,,,,,,,,,,,,,,,,,,,None,0,,,,,,,,,,,,,,,,,,,14,001,2021_Sep_14_1512,joplin1,2021.2.3,59.7138959155982,
,0 0 1 0 0 0 0 1 0 0,8,categoryA,f,genfile1.csv,1,,,,,,,,,0,0,0,0,0,38,38,7,,,,,,,,,,,,,,,,,,,,,,,,None,0,,,,,,,,,,,,,,,,,,,14,001,2021_Sep_14_1512,joplin1,2021.2.3,59.7138959155982,
,0 0 0 1 0 0 1 0 0 0,8,categoryA,f,genfile1.csv,1,,,,,,,,,0,0,0,0,0,39,39,6,,,,,,,,,,,,,,,,,,,,,,,,None,0,,,,,,,,,,,,,,,,,,,14,001,2021_Sep_14_1512,joplin1,2021.2.3,59.7138959155982,
,0 1 0 1 0 0 0 0 0 0,8,categoryA,f,genfile1.csv,0,,,,,,,,,0,0,0,0,0,40,40,25,,,,,,,,,,,,,,,,,,,,,,,,None,0,,,,,,,,,,,,,,,,,,,14,001,2021_Sep_14_1512,joplin1,2021.2.3,59.7138959155982,
,1 1 1 1 1 1 0 1 0 1,2,categoryB,j,genfile1.csv,0,,,,,,,,,0,0,0,0,0,41,41,48,,,,,,,,,,,,,,,,,,,,,,,,None,0,,,,,,,,,,,,,,,,,,,14,001,2021_Sep_14_1512,joplin1,2021.2.3,59.7138959155982,
,1 1 1 1 1 1 1 0 1 1,1,categoryB,j,genfile1.csv,0,,,,,,,,,0,0,0,0,0,42,42,53,,,,,,,,,,,,,,,,,,,,,,,,None,0,,,,,,,,,,,,,,,,,,,14,001,2021_Sep_14_1512,joplin1,2021.2.3,59.7138959155982,
,1 0 0 0 0 0 0 0 0 0,9,categoryA,f,genfile1.csv,0,,,,,,,,,0,0,0,0,0,43,43,18,,,,,,,,,,,,,,,,,,,,,,,,None,0,,,,,,,,,,,,,,,,,,,14,001,2021_Sep_14_1512,joplin1,2021.2.3,59.7138959155982,
,1 1 0 1 1 1 1 0 1 1,2,categoryB,j,genfile1.csv,1,,,,,,,,,0,0,0,0,0,44,44,14,,,,,,,,,,,,,,,,,,,,,,,,None,0,,,,,,,,,,,,,,,,,,,14,001,2021_Sep_14_1512,joplin1,2021.2.3,59.7138959155982,
,0 1 1 0 1 0 1 1 1 1,3,categoryB,j,genfile1.csv,0,,,,,,,,,0,0,0,0,0,45,45,43,,,,,,,,,,,,,,,,,,,,,,,,None,0,,,,,,,,,,,,,,,,,,,14,001,2021_Sep_14_1512,joplin1,2021.2.3,59.7138959155982,
,1 1 1 0 1 1 1 1 1 1,1,categoryB,j,genfile1.csv,0,,,,,,,,,0,0,0,0,0,46,46,52,,,,,,,,,,,,,,,,,,,,,,,,None,0,,,,,,,,,,,,,,,,,,,14,001,2021_Sep_14_1512,joplin1,2021.2.3,59.7138959155982,
,0 1 1 0 0 0 0 0 1 1,6,categoryA,f,genfile1.csv,0,,,,,,,,,0,0,0,0,0,47,47,34,,,,,,,,,,,,,,,,,,,,,,,,None,0,,,,,,,,,,,,,,,,,,,14,001,2021_Sep_14_1512,joplin1,2021.2.3,59.7138959155982,
,1 1 1 1 0 1 1 1 1 1,1,categoryB,j,genfile1.csv,0,,,,,,,,,0,0,0,0,0,48,48,51,,,,,,,,,,,,,,,,,,,,,,,,None,0,,,,,,,,,,,,,,,,,,,14,001,2021_Sep_14_1512,joplin1,2021.2.3,59.7138959155982,
,1 1 1 0 1 1 0 1 1 1,2,categoryB,j,genfile1.csv,1,,,,,,,,,0,0,0,0,0,49,49,13,,,,,,,,,,,,,,,,,,,,,,,,None,0,,,,,,,,,,,,,,,,,,,14,001,2021_Sep_14_1512,joplin1,2021.2.3,59.7138959155982,
,0 0 0 0 1 0 0 0 1 0,8,categoryA,f,genfile1.csv,0,,,,,,,,,0,0,0,0,0,50,50,22,,,,,,,,,,,,,,,,,,,,,,,,None,0,,,,,,,,,,,,,,,,,,,14,001,2021_Sep_14_1512,joplin1,2021.2.3,59.7138959155982,
,1 0 1 0 0 0 0 0 0 0,8,categoryA,f,genfile1.csv,0,,,,,,,,,0,0,0,0,0,51,51,21,,,,,,,,,,,,,,,,,,,,,,,,None,0,,,,,,,,,,,,,,,,,,,14,001,2021_Sep_14_1512,joplin1,2021.2.3,59.7138959155982,
,1 0 1 1 1 1 1 1 0 1,2,categoryB,j,genfile1.csv,1,,,,,,,,,0,0,0,0,0,52,52,10,,,,,,,,,,,,,,,,,,,,,,,,None,0,,,,,,,,,,,,,,,,,,,14,001,2021_Sep_14_1512,joplin1,2021.2.3,59.7138959155982,
,1 1 0 1 0 1 1 0 1 0,4,categoryB,j,genfile1.csv,0,,,,,,,,,0,0,0,0,0,53,53,36,,,,,,,,,,,,,,,,,,,,,,,,None,0,,,,,,,,,,,,,,,,,,,14,001,2021_Sep_14_1512,joplin1,2021.2.3,59.7138959155982,
,0 0 0 1 0 0 0 0 0 0,9,categoryA,f,genfile1.csv,0,,,,,,,,,0,0,0,0,0,54,54,16,,,,,,,,,,,,,,,,,,,,,,,,None,0,,,,,,,,,,,,,,,,,,,14,001,2021_Sep_14_1512,joplin1,2021.2.3,59.7138959155982,
,1 1 1 0 1 0 1 1 1 1,2,categoryB,j,genfile1.csv,0,,,,,,,,,0,0,0,0,0,55,55,47,,,,,,,,,,,,,,,,,,,,,,,,None,0,,,,,,,,,,,,,,,,,,,14,001,2021_Sep_14_1512,joplin1,2021.2.3,59.7138959155982,
,,,,,genfile1.csv,,,,,,,,,,0,0,0,0,,,,,,,,,,,,,,,,,,space,1242.6679619589995,,,,,,,,,,,,,,,,,,,,,,,,,,,,,14,001,2021_Sep_14_1512,joplin1,2021.2.3,59.7138959155982,
,1 1 0 1 0 1 1 1 1 1,2,categoryB,j,genfile2.csv,0,,,,,,,,,0,1,1,1,0,0,0,48,,,,,,,,,,,,,,,,,,,,,,,,None,0,,,,,,,,,,,,,,,,,,,14,001,2021_Sep_14_1512,joplin1,2021.2.3,59.7138959155982,
,0 0 1 0 1 0 0 0 0 0,8,categoryA,f,genfile2.csv,0,,,,,,,,,0,1,1,1,0,1,1,21,,,,,,,,,,,,,,,,,,,,,,,,None,0,,,,,,,,,,,,,,,,,,,14,001,2021_Sep_14_1512,joplin1,2021.2.3,59.7138959155982,
,1 0 1 1 1 1 1 1 0 1,2,categoryB,j,genfile2.csv,1,,,,,,,,,0,1,1,1,0,2,2,10,,,,,,,,,,,,,,,,,,,,,,,,None,0,,,,,,,,,,,,,,,,,,,14,001,2021_Sep_14_1512,joplin1,2021.2.3,59.7138959155982,
,1 1 1 1 1 1 1 1 0 1,1,categoryB,j,genfile2.csv,0,,,,,,,,,0,1,1,1,0,3,3,53,,,,,,,,,,,,,,,,,,,,,,,,None,0,,,,,,,,,,,,,,,,,,,14,001,2021_Sep_14_1512,joplin1,2021.2.3,59.7138959155982,
,0 1 0 0 0 0 0 0 1 0,8,categoryA,f,genfile2.csv,1,,,,,,,,,0,1,1,1,0,4,4,3,,,,,,,,,,,,,,,,,,,,,,,,None,0,,,,,,,,,,,,,,,,,,,14,001,2021_Sep_14_1512,joplin1,2021.2.3,59.7138959155982,
,0 0 1 0 1 0 1 1 0 0,6,categoryA,f,genfile2.csv,0,,,,,,,,,0,1,1,1,0,5,5,33,,,,,,,,,,,,,,,,,,,,,,,,None,0,,,,,,,,,,,,,,,,,,,14,001,2021_Sep_14_1512,joplin1,2021.2.3,59.7138959155982,
,0 0 0 0 0 0 0 0 0 1,9,categoryA,f,genfile2.csv,0,,,,,,,,,0,1,1,1,0,6,6,17,,,,,,,,,,,,,,,,,,,,,,,,None,0,,,,,,,,,,,,,,,,,,,14,001,2021_Sep_14_1512,joplin1,2021.2.3,59.7138959155982,
,1 0 1 0 0 0 0 0 1 1,6,categoryA,f,genfile2.csv,0,,,,,,,,,0,1,1,1,0,7,7,34,,,,,,,,,,,,,,,,,,,,,,,,None,0,,,,,,,,,,,,,,,,,,,14,001,2021_Sep_14_1512,joplin1,2021.2.3,59.7138959155982,
,0 0 0 0 0 0 0 0 0 0,10,categoryA,f,genfile2.csv,0,,,,,,,,,0,1,1,1,0,8,8,0,,,,,,,,,,,,,,,,,,,,,,,,None,0,,,,,,,,,,,,,,,,,,,14,001,2021_Sep_14_1512,joplin1,2021.2.3,59.7138959155982,
,1 1 0 0 0 0 0 1 1 0,6,categoryA,f,genfile2.csv,0,,,,,,,,,0,1,1,1,0,9,9,31,,,,,,,,,,,,,,,,,,,,,,,,None,0,,,,,,,,,,,,,,,,,,,14,001,2021_Sep_14_1512,joplin1,2021.2.3,59.7138959155982,
,1 0 0 0 1 0 1 1 1 1,4,categoryB,j,genfile2.csv,0,,,,,,,,,0,1,1,1,0,10,10,36,,,,,,,,,,,,,,,,,,,,,,,,None,0,,,,,,,,,,,,,,,,,,,14,001,2021_Sep_14_1512,joplin1,2021.2.3,59.7138959155982,
,0 1 0 0 1 1 1 1 0 1,4,categoryB,j,genfile2.csv,0,,,,,,,,,0,1,1,1,0,11,11,39,,,,,,,,,,,,,,,,,,,,,,,,None,0,,,,,,,,,,,,,,,,,,,14,001,2021_Sep_14_1512,joplin1,2021.2.3,59.7138959155982,
,0 1 0 0 0 0 1 0 0 0,8,categoryA,f,genfile2.csv,0,,,,,,,,,0,1,1,1,0,12,12,22,,,,,,,,,,,,,,,,,,,,,,,,None,0,,,,,,,,,,,,,,,,,,,14,001,2021_Sep_14_1512,joplin1,2021.2.3,59.7138959155982,
,1 1 0 1 0 0 1 0 1 1,4,categoryB,j,genfile2.csv,1,,,,,,,,,0,1,1,1,0,13,13,11,,,,,,,,,,,,,,,,,,,,,,,,None,0,,,,,,,,,,,,,,,,,,,14,001,2021_Sep_14_1512,joplin1,2021.2.3,59.7138959155982,
,1 1 1 0 1 0 1 0 0 1,4,categoryB,j,genfile2.csv,0,,,,,,,,,0,1,1,1,0,14,14,38,,,,,,,,,,,,,,,,,,,,,,,,None,0,,,,,,,,,,,,,,,,,,,14,001,2021_Sep_14_1512,joplin1,2021.2.3,59.7138959155982,
,0 0 1 0 0 0 0 1 0 0,8,categoryA,f,genfile2.csv,1,,,,,,,,,0,1,1,1,0,15,15,7,,,,,,,,,,,,,,,,,,,,,,,,None,0,,,,,,,,,,,,,,,,,,,14,001,2021_Sep_14_1512,joplin1,2021.2.3,59.7138959155982,
,0 0 0 1 0 0 0 1 0 1,7,categoryA,f,genfile2.csv,0,,,,,,,,,0,1,1,1,0,16,16,28,,,,,,,,,,,,,,,,,,,,,,,,None,0,,,,,,,,,,,,,,,,,,,14,001,2021_Sep_14_1512,joplin1,2021.2.3,59.7138959155982,
,1 1 0 0 0 0 0 0 1 1,6,categoryA,f,genfile2.csv,1,,,,,,,,,0,1,1,1,0,17,17,8,,,,,,,,,,,,,,,,,,,,,,,,None,0,,,,,,,,,,,,,,,,,,,14,001,2021_Sep_14_1512,joplin1,2021.2.3,59.7138959155982,
,0 0 0 0 0 1 0 0 0 0,9,categoryA,f,genfile2.csv,0,,,,,,,,,0,1,1,1,0,18,18,16,,,,,,,,,,,,,,,,,,,,,,,,None,0,,,,,,,,,,,,,,,,,,,14,001,2021_Sep_14_1512,joplin1,2021.2.3,59.7138959155982,
,0 1 1 0 0 0 0 1 1 0,6,categoryA,f,genfile2.csv,0,,,,,,,,,0,1,1,1,0,19,19,32,,,,,,,,,,,,,,,,,,,,,,,,None,0,,,,,,,,,,,,,,,,,,,14,001,2021_Sep_14_1512,joplin1,2021.2.3,59.7138959155982,
,1 1 1 1 1 1 1 1 1 0,1,categoryB,j,genfile2.csv,0,,,,,,,,,0,1,1,1,0,20,20,51,,,,,,,,,,,,,,,,,,,,,,,,None,0,,,,,,,,,,,,,,,,,,,14,001,2021_Sep_14_1512,joplin1,2021.2.3,59.7138959155982,
,0 0 0 1 1 1 1 0 0 0,6,categoryA,f,genfile2.csv,1,,,,,,,,,0,1,1,1,0,21,21,5,,,,,,,,,,,,,,,,,,,,,,,,None,0,,,,,,,,,,,,,,,,,,,14,001,2021_Sep_14_1512,joplin1,2021.2.3,59.7138959155982,
,1 1 1 1 0 1 1 1 1 0,2,categoryB,j,genfile2.csv,0,,,,,,,,,0,1,1,1,0,22,22,46,,,,,,,,,,,,,,,,,,,,,,,,None,0,,,,,,,,,,,,,,,,,,,14,001,2021_Sep_14_1512,joplin1,2021.2.3,59.7138959155982,
,1 1 0 1 1 1 0 1 0 1,3,categoryB,j,genfile2.csv,0,,,,,,,,,0,1,1,1,0,23,23,44,,,,,,,,,,,,,,,,,,,,,,,,None,0,,,,,,,,,,,,,,,,,,,14,001,2021_Sep_14_1512,joplin1,2021.2.3,59.7138959155982,
,1 0 0 1 1 1 1 1 1 1,2,categoryB,j,genfile2.csv,0,,,,,,,,,0,1,1,1,0,24,24,47,,,,,,,,,,,,,,,,,,,,,,,,None,0,,,,,,,,,,,,,,,,,,,14,001,2021_Sep_14_1512,joplin1,2021.2.3,59.7138959155982,
,1 1 0 1 1 0 1 0 1 1,3,categoryB,j,genfile2.csv,0,,,,,,,,,0,1,1,1,0,25,25,41,,,,,,,,,,,,,,,,,,,,,,,,None,0,,,,,,,,,,,,,,,,,,,14,001,2021_Sep_14_1512,joplin1,2021.2.3,59.7138959155982,
,1 1 1 0 0 0 0 1 1 1,4,categoryB,j,genfile2.csv,1,,,,,,,,,0,1,1,1,0,26,26,12,,,,,,,,,,,,,,,,,,,,,,,,None,0,,,,,,,,,,,,,,,,,,,14,001,2021_Sep_14_1512,joplin1,2021.2.3,59.7138959155982,
,1 1 0 0 1 1 1 0 0 1,4,categoryB,j,genfile2.csv,0,,,,,,,,,0,1,1,1,0,27,27,37,,,,,,,,,,,,,,,,,,,,,,,,None,0,,,,,,,,,,,,,,,,,,,14,001,2021_Sep_14_1512,joplin1,2021.2.3,59.7138959155982,
,1 1 1 1 1 0 1 1 0 0,3,categoryB,j,genfile2.csv,0,,,,,,,,,0,1,1,1,0,28,28,45,,,,,,,,,,,,,,,,,,,,,,,,None,0,,,,,,,,,,,,,,,,,,,14,001,2021_Sep_14_1512,joplin1,2021.2.3,59.7138959155982,
,1 1 0 1 1 1 1 0 1 1,2,categoryB,j,genfile2.csv,1,,,,,,,,,0,1,1,1,0,29,29,14,,,,,,,,,,,,,,,,,,,,,,,,None,0,,,,,,,,,,,,,,,,,,,14,001,2021_Sep_14_1512,joplin1,2021.2.3,59.7138959155982,
,0 0 1 0 1 1 0 1 0 0,6,categoryA,f,genfile2.csv,1,,,,,,,,,0,1,1,1,0,30,30,4,,,,,,,,,,,,,,,,,,,,,,,,None,0,,,,,,,,,,,,,,,,,,,14,001,2021_Sep_14_1512,joplin1,2021.2.3,59.7138959155982,
,0 0 0 1 0 0 1 1 0 0,7,categoryA,f,genfile2.csv,0,,,,,,,,,0,1,1,1,0,31,31,29,,,,,,,,,,,,,,,,,,,,,,,,None,0,,,,,,,,,,,,,,,,,,,14,001,2021_Sep_14_1512,joplin1,2021.2.3,59.7138959155982,
,1 1 1 0 1 1 0 1 1 1,2,categoryB,j,genfile2.csv,1,,,,,,,,,0,1,1,1,0,32,32,13,,,,,,,,,,,,,,,,,,,,,,,,None,0,,,,,,,,,,,,,,,,,,,14,001,2021_Sep_14_1512,joplin1,2021.2.3,59.7138959155982,
,0 0 1 0 0 0 0 0 0 0,9,categoryA,f,genfile2.csv,0,,,,,,,,,0,1,1,1,0,33,33,18,,,,,,,,,,,,,,,,,,,,,,,,None,0,,,,,,,,,,,,,,,,,,,14,001,2021_Sep_14_1512,joplin1,2021.2.3,59.7138959155982,
,1 0 0 0 0 0 0 0 0 1,8,categoryA,f,genfile2.csv,1,,,,,,,,,0,1,1,1,0,34,34,2,,,,,,,,,,,,,,,,,,,,,,,,None,0,,,,,,,,,,,,,,,,,,,14,001,2021_Sep_14_1512,joplin1,2021.2.3,59.7138959155982,
,0 0 0 0 1 0 0 0 0 1,8,categoryA,f,genfile2.csv,0,,,,,,,,,0,1,1,1,0,35,35,23,,,,,,,,,,,,,,,,,,,,,,,,None,0,,,,,,,,,,,,,,,,,,,14,001,2021_Sep_14_1512,joplin1,2021.2.3,59.7138959155982,
,1 1 0 1 1 1 1 1 1 1,1,categoryB,j,genfile2.csv,0,,,,,,,,,0,1,1,1,0,36,36,55,,,,,,,,,,,,,,,,,,,,,,,,None,0,,,,,,,,,,,,,,,,,,,14,001,2021_Sep_14_1512,joplin1,2021.2.3,59.7138959155982,
,0 0 0 1 1 1 0 0 0 0,7,categoryA,f,genfile2.csv,0,,,,,,,,,0,1,1,1,0,37,37,30,,,,,,,,,,,,,,,,,,,,,,,,None,0,,,,,,,,,,,,,,,,,,,14,001,2021_Sep_14_1512,joplin1,2021.2.3,59.7138959155982,
,0 1 1 0 1 0 1 0 1 1,4,categoryB,j,genfile2.csv,0,,,,,,,,,0,1,1,1,0,38,38,40,,,,,,,,,,,,,,,,,,,,,,,,None,0,,,,,,,,,,,,,,,,,,,14,001,2021_Sep_14_1512,joplin1,2021.2.3,59.7138959155982,
,0 1 1 1 0 0 1 1 1 1,3,categoryB,j,genfile2.csv,0,,,,,,,,,0,1,1,1,0,39,39,42,,,,,,,,,,,,,,,,,,,,,,,,None,0,,,,,,,,,,,,,,,,,,,14,001,2021_Sep_14_1512,joplin1,2021.2.3,59.7138959155982,
,1 1 0 1 1 1 1 1 0 0,3,categoryB,j,genfile2.csv,0,,,,,,,,,0,1,1,1,0,40,40,43,,,,,,,,,,,,,,,,,,,,,,,,None,0,,,,,,,,,,,,,,,,,,,14,001,2021_Sep_14_1512,joplin1,2021.2.3,59.7138959155982,
,1 0 0 1 1 0 0 0 1 0,6,categoryA,f,genfile2.csv,0,,,,,,,,,0,1,1,1,0,41,41,35,,,,,,,,,,,,,,,,,,,,,,,,None,0,,,,,,,,,,,,,,,,,,,14,001,2021_Sep_14_1512,joplin1,2021.2.3,59.7138959155982,
,0 0 1 1 1 1 1 1 0 0,4,categoryB,j,genfile2.csv,1,,,,,,,,,0,1,1,1,0,42,42,15,,,,,,,,,,,,,,,,,,,,,,,,None,0,,,,,,,,,,,,,,,,,,,14,001,2021_Sep_14_1512,joplin1,2021.2.3,59.7138959155982,
,0 1 1 1 1 1 1 1 1 0,2,categoryB,j,genfile2.csv,1,,,,,,,,,0,1,1,1,0,43,43,9,,,,,,,,,,,,,,,,,,,,,,,,None,0,,,,,,,,,,,,,,,,,,,14,001,2021_Sep_14_1512,joplin1,2021.2.3,59.7138959155982,
,1 1 1 1 1 0 0 1 1 1,2,categoryB,j,genfile2.csv,0,,,,,,,,,0,1,1,1,0,44,44,50,,,,,,,,,,,,,,,,,,,,,,,,None,0,,,,,,,,,,,,,,,,,,,14,001,2021_Sep_14_1512,joplin1,2021.2.3,59.7138959155982,
,1 0 1 1 1 1 1 1 1 1,1,categoryB,j,genfile2.csv,0,,,,,,,,,0,1,1,1,0,45,45,52,,,,,,,,,,,,,,,,,,,,,,,,None,0,,,,,,,,,,,,,,,,,,,14,001,2021_Sep_14_1512,joplin1,2021.2.3,59.7138959155982,
,0 0 0 1 1 0 0 0 0 0,8,categoryA,f,genfile2.csv,0,,,,,,,,,0,1,1,1,0,46,46,25,,,,,,,,,,,,,,,,,,,,,,,,None,0,,,,,,,,,,,,,,,,,,,14,001,2021_Sep_14_1512,joplin1,2021.2.3,59.7138959155982,
,1 1 1 1 1 1 1 1 1 1,0,categoryB,j,genfile2.csv,0,,,,,,,,,0,1,1,1,0,47,47,1,,,,,,,,,,,,,,,,,,,,,,,,None,0,,,,,,,,,,,,,,,,,,,14,001,2021_Sep_14_1512,joplin1,2021.2.3,59.7138959155982,
,0 0 0 0 0 0 0 1 0 0,9,categoryA,f,genfile2.csv,0,,,,,,,,,0,1,1,1,0,48,48,19,,,,,,,,,,,,,,,,,,,,,,,,None,0,,,,,,,,,,,,,,,,,,,14,001,2021_Sep_14_1512,joplin1,2021.2.3,59.7138959155982,
,0 0 0 0 1 1 0 0 0 0,8,categoryA,f,genfile2.csv,0,,,,,,,,,0,1,1,1,0,49,49,24,,,,,,,,,,,,,,,,,,,,,,,,None,0,,,,,,,,,,,,,,,,,,,14,001,2021_Sep_14_1512,joplin1,2021.2.3,59.7138959155982,
,0 0 0 1 0 0 1 0 0 0,8,categoryA,f,genfile2.csv,1,,,,,,,,,0,1,1,1,0,50,50,6,,,,,,,,,,,,,,,,,,,,,,,,None,0,,,,,,,,,,,,,,,,,,,14,001,2021_Sep_14_1512,joplin1,2021.2.3,59.7138959155982,
,1 0 0 1 0 0 0 1 0 0,7,categoryA,f,genfile2.csv,0,,,,,,,,,0,1,1,1,0,51,51,26,,,,,,,,,,,,,,,,,,,,,,,,None,0,,,,,,,,,,,,,,,,,,,14,001,2021_Sep_14_1512,joplin1,2021.2.3,59.7138959155982,
,1 1 1 1 0 1 1 0 1 1,2,categoryB,j,genfile2.csv,0,,,,,,,,,0,1,1,1,0,52,52,49,,,,,,,,,,,,,,,,,,,,,,,,None,0,,,,,,,,,,,,,,,,,,,14,001,2021_Sep_14_1512,joplin1,2021.2.3,59.7138959155982,
,0 1 0 1 0 0 0 0 1 0,7,categoryA,f,genfile2.csv,0,,,,,,,,,0,1,1,1,0,53,53,27,,,,,,,,,,,,,,,,,,,,,,,,None,0,,,,,,,,,,,,,,,,,,,14,001,2021_Sep_14_1512,joplin1,2021.2.3,59.7138959155982,
,1 1 1 1 1 0 1 1 1 1,1,categoryB,j,genfile2.csv,0,,,,,,,,,0,1,1,1,0,54,54,54,,,,,,,,,,,,,,,,,,,,,,,,None,0,,,,,,,,,,,,,,,,,,,14,001,2021_Sep_14_1512,joplin1,2021.2.3,59.7138959155982,
,0 0 0 0 0 0 0 0 1 0,9,categoryA,f,genfile2.csv,0,,,,,,,,,0,1,1,1,0,55,55,20,,,,,,,,,,,,,,,,,,,,,,,,None,0,,,,,,,,,,,,,,,,,,,14,001,2021_Sep_14_1512,joplin1,2021.2.3,59.7138959155982,
,,,,,genfile2.csv,,,,,,,,,,0,1,1,1,,,,,,,,,,,,,,,,,,space,6.97791375000088,,,,,,,,,,,,,,,,,,,,,,,,,,,,,14,001,2021_Sep_14_1512,joplin1,2021.2.3,59.7138959155982,
,,,,,,,,,,,,,,,,,,,,,,,,,,,,,,,,,,,,,,,,,,,,,,,,,None,,,,,,,,,,,,,,,,,14,001,2021_Sep_14_1512,joplin1,2021.2.3,59.7138959155982,
,,,,,,,,,,,,,,,,,,,,,,,,,,,,,,,,,,,,,,,,,,,,,,,,,,None,,,,,,,,,,,,,,,,14,001,2021_Sep_14_1512,joplin1,2021.2.3,59.7138959155982,
,,,,,,,,,,,,,,,,,,,,,,,,,,,,,,,,,,,,,,,,,,,,,,,,,,,0.7,radio,0.3,Are you Hispanic/Latino?,0,None,None,None,None,,,,,,,14,001,2021_Sep_14_1512,joplin1,2021.2.3,59.7138959155982,
,,,,,,,,,,,,,,,,,,,,,,,,,,,,,,,,,,,,,,,,,,,,,,,,,,,0.7,radio,0.3,Are you an American Indian or Alaska Native?,1,None,None,None,None,,,,,,,14,001,2021_Sep_14_1512,joplin1,2021.2.3,59.7138959155982,
,,,,,,,,,,,,,,,,,,,,,,,,,,,,,,,,,,,,,,,,,,,,,,,,,,,0.7,radio,0.3,Are you Asian?,2,None,None,None,None,,,,,,,14,001,2021_Sep_14_1512,joplin1,2021.2.3,59.7138959155982,
,,,,,,,,,,,,,,,,,,,,,,,,,,,,,,,,,,,,,,,,,,,,,,,,,,,0.7,radio,0.3,Are you Black or African American?,3,None,None,None,None,,,,,,,14,001,2021_Sep_14_1512,joplin1,2021.2.3,59.7138959155982,
,,,,,,,,,,,,,,,,,,,,,,,,,,,,,,,,,,,,,,,,,,,,,,,,,,,0.7,radio,0.3,Are you a Native Hawaiian or other Pacific Islander?,4,None,None,None,None,,,,,,,14,001,2021_Sep_14_1512,joplin1,2021.2.3,59.7138959155982,
,,,,,,,,,,,,,,,,,,,,,,,,,,,,,,,,,,,,,,,,,,,,,,,,,,,0.7,radio,0.3,Are you White?,5,None,None,None,None,,,,,,,14,001,2021_Sep_14_1512,joplin1,2021.2.3,59.7138959155982,
,,,,,,,,,,,,,,,,,,,,,,,,,,,,,,,,,,,,,,,,,,,,,,,,,,,0.85,radio,0.3,"Do you have any history of neurological issues such as stroke, head injury or a neurodegenerative disorder?",6,None,None,None,None,,,,,,,14,001,2021_Sep_14_1512,joplin1,2021.2.3,59.7138959155982,
,,,,,,,,,,,,,,,,,,,,,,,,,,,,,,,,,,,,,,,,,,,,,,,,,,,,,,,,,,,,None,,,,,,14,001,2021_Sep_14_1512,joplin1,2021.2.3,59.7138959155982,
,,,,,,,,,,,,,,,,,,,,,,,,,,,,,,,,,,,,,,,,,,,,,,,,,,,,,,,,,,,,,None,,,,,14,001,2021_Sep_14_1512,joplin1,2021.2.3,59.7138959155982,
,,,,,,,,,,,,,,,,,,,,,,,,,,,,,,,,,,,,,,,,,,,,,,,,,,,,,,,,,,,,,,,,None,,14,001,2021_Sep_14_1512,joplin1,2021.2.3,59.7138959155982,
,,,,,,,,,,,,,,,,,,,,,,,,,,,,,,,,,,,,,,,,,,,,,,,,,,,,,,,,,,,,,,,,,,,,,,,,
