train_set,stim_id,sums_feat,category,correct_key,gen_file,train_item,train_runs.thisRepN,train_runs.thisTrialN,train_runs.thisN,train_runs.thisIndex,train_trials.thisRepN,train_trials.thisTrialN,train_trials.thisN,train_trials.thisIndex,test_runs.thisRepN,test_runs.thisTrialN,test_runs.thisN,test_runs.thisIndex,test_trials.thisRepN,test_trials.thisTrialN,test_trials.thisN,test_trials.thisIndex,welcome_key.keys,welcome_key.rt,welcome_key.started,welcome_key.stopped,train_inst1_key.keys,train_inst1_key.rt,train_inst2_key.keys,train_inst2_key.rt,train_begin_key.keys,train_begin_key.rt,train_key.keys,train_key.corr,train_key.rt,break_key.keys,break_key.rt,key_resp.keys,key_resp.rt,test_inst1_key.keys,test_inst1_key.rt,test_inst2_key.keys,test_inst2_key.rt,test_begin_key.keys,test_begin_key.rt,test_key.keys,test_key.corr,test_key.rt,test_end_key.keys,demo_inst1_key.keys,form.questionWidth,form.type,form.respWidth,form.itemText,form.index,form.font,form.markerColor,form.response,form.rt,form_key.keys,demo_inst2_key.keys,gender_string,age_string,demo4_key.keys,typedWord,participant,session,date,expName,psychopyVersion,frameRate,
,,,,,,,,,,,,,,,,,,,,,,,space,44.77796033299819,123.06355566700222,None,,,,,,,,,,,,,,,,,,,,,,,,,,,,,,,,,,,,,,,,888,001,2021_Sep_07_1438,joplin1,2021.2.3,59.93522488489446,
,,,,,,,,,,,,,,,,,,,,,,,,,,,f,19.50691424999968,,,,,,,,,,,,,,,,,,,,,,,,,,,,,,,,,,,,,,888,001,2021_Sep_07_1438,joplin1,2021.2.3,59.93522488489446,
,,,,,,,,,,,,,,,,,,,,,,,,,,,,,space,10.774923832999775,,,,,,,,,,,,,,,,,,,,,,,,,,,,,,,,,,,,888,001,2021_Sep_07_1438,joplin1,2021.2.3,59.93522488489446,
,,,,,,,,,,,,,,,,,,,,,,,,,,,,,,,space,57.849836625002354,,,,,,,,,,,,,,,,,,,,,,,,,,,,,,,,,,888,001,2021_Sep_07_1438,joplin1,2021.2.3,59.93522488489446,
_train_cond.csv,1 1 0 0 0 0 0 0 1 1,4,categoryB,j,,,0,0,0,1,0,0,0,6,,,,,,,,,,,,,,,,,,,f,0,2.2220349590024853,,,,,,,,,,,,,,,,,,,,,,,,,,,,,,,888,001,2021_Sep_07_1438,joplin1,2021.2.3,59.93522488489446,
_train_cond.csv,0 1 0 0 0 0 0 0 1 0,2,categoryB,j,,,0,0,0,1,0,1,1,1,,,,,,,,,,,,,,,,,,,f,0,1.61340837500029,,,,,,,,,,,,,,,,,,,,,,,,,,,,,,,888,001,2021_Sep_07_1438,joplin1,2021.2.3,59.93522488489446,
_train_cond.csv,0 0 0 1 0 0 1 0 0 0,2,categoryB,j,,,0,0,0,1,0,2,2,4,,,,,,,,,,,,,,,,,,,j,1,0.3845252499995695,,,,,,,,,,,,,,,,,,,,,,,,,,,,,,,888,001,2021_Sep_07_1438,joplin1,2021.2.3,59.93522488489446,
_train_cond.csv,1 1 0 1 0 0 1 0 1 1,6,categoryA,f,,,0,0,0,1,0,3,3,9,,,,,,,,,,,,,,,,,,,j,0,0.15416529099820764,,,,,,,,,,,,,,,,,,,,,,,,,,,,,,,888,001,2021_Sep_07_1438,joplin1,2021.2.3,59.93522488489446,
_train_cond.csv,1 1 1 0 0 0 0 1 1 1,6,categoryA,f,,,0,0,0,1,0,4,4,10,,,,,,,,,,,,,,,,,,,f,1,0.02284654100003536,,,,,,,,,,,,,,,,,,,,,,,,,,,,,,,888,001,2021_Sep_07_1438,joplin1,2021.2.3,59.93522488489446,
_train_cond.csv,0 1 1 1 1 1 1 1 1 0,8,categoryA,f,,,0,0,0,1,0,5,5,7,,,,,,,,,,,,,,,,,,,None,0,,,,,,,,,,,,,,,,,,,,,,,,,,,,,,,,888,001,2021_Sep_07_1438,joplin1,2021.2.3,59.93522488489446,
_train_cond.csv,0 0 1 0 0 0 0 1 0 0,2,categoryB,j,,,0,0,0,1,0,6,6,5,,,,,,,,,,,,,,,,,,,j,1,0.9601811669999734,,,,,,,,,,,,,,,,,,,,,,,,,,,,,,,888,001,2021_Sep_07_1438,joplin1,2021.2.3,59.93522488489446,
_train_cond.csv,1 0 0 0 0 0 0 0 0 1,2,categoryB,j,,,0,0,0,1,0,7,7,0,,,,,,,,,,,,,,,,,,,f,0,0.3493929169999319,,,,,,,,,,,,,,,,,,,,,,,,,,,,,,,888,001,2021_Sep_07_1438,joplin1,2021.2.3,59.93522488489446,
_train_cond.csv,1 1 1 0 1 1 0 1 1 1,8,categoryA,f,,,0,0,0,1,0,8,8,11,,,,,,,,,,,,,,,,,,,f,1,0.23682379099773243,,,,,,,,,,,,,,,,,,,,,,,,,,,,,,,888,001,2021_Sep_07_1438,joplin1,2021.2.3,59.93522488489446,
_train_cond.csv,0 0 0 1 1 1 1 0 0 0,4,categoryB,j,,,0,0,0,1,0,9,9,3,,,,,,,,,,,,,,,,,,,f,0,0.40604262499982724,,,,,,,,,,,,,,,,,,,,,,,,,,,,,,,888,001,2021_Sep_07_1438,joplin1,2021.2.3,59.93522488489446,
_train_cond.csv,0 0 1 0 1 1 0 1 0 0,4,categoryB,j,,,0,0,0,1,0,10,10,2,,,,,,,,,,,,,,,,,,,j,1,0.8266760829974373,,,,,,,,,,,,,,,,,,,,,,,,,,,,,,,888,001,2021_Sep_07_1438,joplin1,2021.2.3,59.93522488489446,
_train_cond.csv,0 0 1 1 1 1 1 1 0 0,6,categoryA,f,,,0,0,0,1,0,11,11,13,,,,,,,,,,,,,,,,,,,j,0,0.7004098340003111,,,,,,,,,,,,,,,,,,,,,,,,,,,,,,,888,001,2021_Sep_07_1438,joplin1,2021.2.3,59.93522488489446,
_train_cond.csv,1 1 0 1 1 1 1 0 1 1,8,categoryA,f,,,0,0,0,1,0,12,12,12,,,,,,,,,,,,,,,,,,,f,1,0.17088179100028356,,,,,,,,,,,,,,,,,,,,,,,,,,,,,,,888,001,2021_Sep_07_1438,joplin1,2021.2.3,59.93522488489446,
_train_cond.csv,1 0 1 1 1 1 1 1 0 1,8,categoryA,f,,,0,0,0,1,0,13,13,8,,,,,,,,,,,,,,,,,,,j,0,0.822699708998698,,,,,,,,,,,,,,,,,,,,,,,,,,,,,,,888,001,2021_Sep_07_1438,joplin1,2021.2.3,59.93522488489446,
_train_cond.csv,0 0 1 0 0 0 0 1 0 0,2,categoryB,j,,,0,0,0,1,1,0,14,5,,,,,,,,,,,,,,,,,,,j,1,0.3232188750007481,,,,,,,,,,,,,,,,,,,,,,,,,,,,,,,888,001,2021_Sep_07_1438,joplin1,2021.2.3,59.93522488489446,
_train_cond.csv,0 1 0 0 0 0 0 0 1 0,2,categoryB,j,,,0,0,0,1,1,1,15,1,,,,,,,,,,,,,,,,,,,j,1,0.6917591659985192,,,,,,,,,,,,,,,,,,,,,,,,,,,,,,,888,001,2021_Sep_07_1438,joplin1,2021.2.3,59.93522488489446,
_train_cond.csv,0 0 1 1 1 1 1 1 0 0,6,categoryA,f,,,0,0,0,1,1,2,16,13,,,,,,,,,,,,,,,,,,,j,0,0.10374529199907556,,,,,,,,,,,,,,,,,,,,,,,,,,,,,,,888,001,2021_Sep_07_1438,joplin1,2021.2.3,59.93522488489446,
_train_cond.csv,0 0 0 1 1 1 1 0 0 0,4,categoryB,j,,,0,0,0,1,1,3,17,3,,,,,,,,,,,,,,,,,,,j,1,0.2797430000027816,,,,,,,,,,,,,,,,,,,,,,,,,,,,,,,888,001,2021_Sep_07_1438,joplin1,2021.2.3,59.93522488489446,
_train_cond.csv,0 0 0 1 0 0 1 0 0 0,2,categoryB,j,,,0,0,0,1,1,4,18,4,,,,,,,,,,,,,,,,,,,f,0,1.2815974579971225,,,,,,,,,,,,,,,,,,,,,,,,,,,,,,,888,001,2021_Sep_07_1438,joplin1,2021.2.3,59.93522488489446,
_train_cond.csv,1 1 1 0 0 0 0 1 1 1,6,categoryA,f,,,0,0,0,1,1,5,19,10,,,,,,,,,,,,,,,,,,,f,1,0.7082164579987875,,,,,,,,,,,,,,,,,,,,,,,,,,,,,,,888,001,2021_Sep_07_1438,joplin1,2021.2.3,59.93522488489446,
_train_cond.csv,1 1 1 0 1 1 0 1 1 1,8,categoryA,f,,,0,0,0,1,1,6,20,11,,,,,,,,,,,,,,,,,,,f,1,0.48564970799998264,,,,,,,,,,,,,,,,,,,,,,,,,,,,,,,888,001,2021_Sep_07_1438,joplin1,2021.2.3,59.93522488489446,
_train_cond.csv,1 1 0 1 0 0 1 0 1 1,6,categoryA,f,,,0,0,0,1,1,7,21,9,,,,,,,,,,,,,,,,,,,f,1,0.67196020800111,,,,,,,,,,,,,,,,,,,,,,,,,,,,,,,888,001,2021_Sep_07_1438,joplin1,2021.2.3,59.93522488489446,
_train_cond.csv,1 1 0 1 1 1 1 0 1 1,8,categoryA,f,,,0,0,0,1,1,8,22,12,,,,,,,,,,,,,,,,,,,j,0,0.9234054580010707,,,,,,,,,,,,,,,,,,,,,,,,,,,,,,,888,001,2021_Sep_07_1438,joplin1,2021.2.3,59.93522488489446,
_train_cond.csv,0 0 1 0 1 1 0 1 0 0,4,categoryB,j,,,0,0,0,1,1,9,23,2,,,,,,,,,,,,,,,,,,,j,1,0.14807679200021084,,,,,,,,,,,,,,,,,,,,,,,,,,,,,,,888,001,2021_Sep_07_1438,joplin1,2021.2.3,59.93522488489446,
_train_cond.csv,1 0 1 1 1 1 1 1 0 1,8,categoryA,f,,,0,0,0,1,1,10,24,8,,,,,,,,,,,,,,,,,,,f,1,0.06761537499914994,,,,,,,,,,,,,,,,,,,,,,,,,,,,,,,888,001,2021_Sep_07_1438,joplin1,2021.2.3,59.93522488489446,
_train_cond.csv,0 1 1 1 1 1 1 1 1 0,8,categoryA,f,,,0,0,0,1,1,11,25,7,,,,,,,,,,,,,,,,,,,j,0,0.7498221659989213,,,,,,,,,,,,,,,,,,,,,,,,,,,,,,,888,001,2021_Sep_07_1438,joplin1,2021.2.3,59.93522488489446,
_train_cond.csv,1 0 0 0 0 0 0 0 0 1,2,categoryB,j,,,0,0,0,1,1,12,26,0,,,,,,,,,,,,,,,,,,,f,0,0.7740697079971142,,,,,,,,,,,,,,,,,,,,,,,,,,,,,,,888,001,2021_Sep_07_1438,joplin1,2021.2.3,59.93522488489446,
_train_cond.csv,1 1 0 0 0 0 0 0 1 1,4,categoryB,j,,,0,0,0,1,1,13,27,6,,,,,,,,,,,,,,,,,,,j,1,1.1493016669992357,,,,,,,,,,,,,,,,,,,,,,,,,,,,,,,888,001,2021_Sep_07_1438,joplin1,2021.2.3,59.93522488489446,
_train_cond.csv,1 1 1 0 0 0 0 1 1 1,6,categoryA,f,,,0,0,0,1,2,0,28,10,,,,,,,,,,,,,,,,,,,j,0,0.5726325840005302,,,,,,,,,,,,,,,,,,,,,,,,,,,,,,,888,001,2021_Sep_07_1438,joplin1,2021.2.3,59.93522488489446,
_train_cond.csv,0 0 0 1 1 1 1 0 0 0,4,categoryB,j,,,0,0,0,1,2,1,29,3,,,,,,,,,,,,,,,,,,,j,1,0.6428461670002434,,,,,,,,,,,,,,,,,,,,,,,,,,,,,,,888,001,2021_Sep_07_1438,joplin1,2021.2.3,59.93522488489446,
_train_cond.csv,0 0 1 0 1 1 0 1 0 0,4,categoryB,j,,,0,0,0,1,2,2,30,2,,,,,,,,,,,,,,,,,,,j,1,0.29515995800102246,,,,,,,,,,,,,,,,,,,,,,,,,,,,,,,888,001,2021_Sep_07_1438,joplin1,2021.2.3,59.93522488489446,
_train_cond.csv,0 0 1 0 0 0 0 1 0 0,2,categoryB,j,,,0,0,0,1,2,3,31,5,,,,,,,,,,,,,,,,,,,j,1,0.5052722079999512,,,,,,,,,,,,,,,,,,,,,,,,,,,,,,,888,001,2021_Sep_07_1438,joplin1,2021.2.3,59.93522488489446,
_train_cond.csv,1 1 1 0 1 1 0 1 1 1,8,categoryA,f,,,0,0,0,1,2,4,32,11,,,,,,,,,,,,,,,,,,,f,1,0.9792797080008313,,,,,,,,,,,,,,,,,,,,,,,,,,,,,,,888,001,2021_Sep_07_1438,joplin1,2021.2.3,59.93522488489446,
_train_cond.csv,0 1 0 0 0 0 0 0 1 0,2,categoryB,j,,,0,0,0,1,2,5,33,1,,,,,,,,,,,,,,,,,,,j,1,0.0024766250026004855,,,,,,,,,,,,,,,,,,,,,,,,,,,,,,,888,001,2021_Sep_07_1438,joplin1,2021.2.3,59.93522488489446,
_train_cond.csv,0 1 1 1 1 1 1 1 1 0,8,categoryA,f,,,0,0,0,1,2,6,34,7,,,,,,,,,,,,,,,,,,,f,1,1.0233639160032908,,,,,,,,,,,,,,,,,,,,,,,,,,,,,,,888,001,2021_Sep_07_1438,joplin1,2021.2.3,59.93522488489446,
_train_cond.csv,0 0 1 1 1 1 1 1 0 0,6,categoryA,f,,,0,0,0,1,2,7,35,13,,,,,,,,,,,,,,,,,,,f,1,0.8358327499990992,,,,,,,,,,,,,,,,,,,,,,,,,,,,,,,888,001,2021_Sep_07_1438,joplin1,2021.2.3,59.93522488489446,
_train_cond.csv,1 1 0 0 0 0 0 0 1 1,4,categoryB,j,,,0,0,0,1,2,8,36,6,,,,,,,,,,,,,,,,,,,j,1,0.7025555000000168,,,,,,,,,,,,,,,,,,,,,,,,,,,,,,,888,001,2021_Sep_07_1438,joplin1,2021.2.3,59.93522488489446,
_train_cond.csv,1 1 0 1 0 0 1 0 1 1,6,categoryA,f,,,0,0,0,1,2,9,37,9,,,,,,,,,,,,,,,,,,,f,1,0.3846796670004551,,,,,,,,,,,,,,,,,,,,,,,,,,,,,,,888,001,2021_Sep_07_1438,joplin1,2021.2.3,59.93522488489446,
_train_cond.csv,1 0 1 1 1 1 1 1 0 1,8,categoryA,f,,,0,0,0,1,2,10,38,8,,,,,,,,,,,,,,,,,,,f,1,0.5586445830012963,,,,,,,,,,,,,,,,,,,,,,,,,,,,,,,888,001,2021_Sep_07_1438,joplin1,2021.2.3,59.93522488489446,
_train_cond.csv,0 0 0 1 0 0 1 0 0 0,2,categoryB,j,,,0,0,0,1,2,11,39,4,,,,,,,,,,,,,,,,,,,f,0,0.4466229999998177,,,,,,,,,,,,,,,,,,,,,,,,,,,,,,,888,001,2021_Sep_07_1438,joplin1,2021.2.3,59.93522488489446,
_train_cond.csv,1 1 0 1 1 1 1 0 1 1,8,categoryA,f,,,0,0,0,1,2,12,40,12,,,,,,,,,,,,,,,,,,,j,0,0.9224312500009546,,,,,,,,,,,,,,,,,,,,,,,,,,,,,,,888,001,2021_Sep_07_1438,joplin1,2021.2.3,59.93522488489446,
_train_cond.csv,1 0 0 0 0 0 0 0 0 1,2,categoryB,j,,,0,0,0,1,2,13,41,0,,,,,,,,,,,,,,,,,,,f,0,0.530653917001473,,,,,,,,,,,,,,,,,,,,,,,,,,,,,,,888,001,2021_Sep_07_1438,joplin1,2021.2.3,59.93522488489446,
_train_cond.csv,,,,,,,0,0,0,1,,,,,,,,,,,,,,,,,,,,,,,,,,space,5.027693916999851,,,,,,,,,,,,,,,,,,,,,,,,,,,,,888,001,2021_Sep_07_1438,joplin1,2021.2.3,59.93522488489446,
_train_cond.csv,0 0 0 1 1 1 1 0 0 0,4,categoryB,j,,,0,1,1,5,0,0,0,3,,,,,,,,,,,,,,,,,,,j,1,0.7827497920006863,,,,,,,,,,,,,,,,,,,,,,,,,,,,,,,888,001,2021_Sep_07_1438,joplin1,2021.2.3,59.93522488489446,
_train_cond.csv,1 0 1 1 1 1 1 1 0 1,8,categoryA,f,,,0,1,1,5,0,1,1,8,,,,,,,,,,,,,,,,,,,j,0,0.35790141700272216,,,,,,,,,,,,,,,,,,,,,,,,,,,,,,,888,001,2021_Sep_07_1438,joplin1,2021.2.3,59.93522488489446,
_train_cond.csv,1 1 0 0 0 0 0 0 1 1,4,categoryB,j,,,0,1,1,5,0,2,2,6,,,,,,,,,,,,,,,,,,,f,0,0.4610458329989342,,,,,,,,,,,,,,,,,,,,,,,,,,,,,,,888,001,2021_Sep_07_1438,joplin1,2021.2.3,59.93522488489446,
_train_cond.csv,0 0 1 0 1 1 0 1 0 0,4,categoryB,j,,,0,1,1,5,0,3,3,2,,,,,,,,,,,,,,,,,,,f,0,0.8875595420031459,,,,,,,,,,,,,,,,,,,,,,,,,,,,,,,888,001,2021_Sep_07_1438,joplin1,2021.2.3,59.93522488489446,
_train_cond.csv,0 0 1 1 1 1 1 1 0 0,6,categoryA,f,,,0,1,1,5,0,4,4,13,,,,,,,,,,,,,,,,,,,j,0,0.37034420899726683,,,,,,,,,,,,,,,,,,,,,,,,,,,,,,,888,001,2021_Sep_07_1438,joplin1,2021.2.3,59.93522488489446,
_train_cond.csv,1 0 0 0 0 0 0 0 0 1,2,categoryB,j,,,0,1,1,5,0,5,5,0,,,,,,,,,,,,,,,,,,,j,1,0.7194466250002733,,,,,,,,,,,,,,,,,,,,,,,,,,,,,,,888,001,2021_Sep_07_1438,joplin1,2021.2.3,59.93522488489446,
_train_cond.csv,1 1 0 1 0 0 1 0 1 1,6,categoryA,f,,,0,1,1,5,0,6,6,9,,,,,,,,,,,,,,,,,,,f,1,0.640528333002294,,,,,,,,,,,,,,,,,,,,,,,,,,,,,,,888,001,2021_Sep_07_1438,joplin1,2021.2.3,59.93522488489446,
_train_cond.csv,0 1 1 1 1 1 1 1 1 0,8,categoryA,f,,,0,1,1,5,0,7,7,7,,,,,,,,,,,,,,,,,,,f,1,0.3084506249979313,,,,,,,,,,,,,,,,,,,,,,,,,,,,,,,888,001,2021_Sep_07_1438,joplin1,2021.2.3,59.93522488489446,
_train_cond.csv,0 0 0 1 0 0 1 0 0 0,2,categoryB,j,,,0,1,1,5,0,8,8,4,,,,,,,,,,,,,,,,,,,j,1,0.4545539999999164,,,,,,,,,,,,,,,,,,,,,,,,,,,,,,,888,001,2021_Sep_07_1438,joplin1,2021.2.3,59.93522488489446,
_train_cond.csv,0 1 0 0 0 0 0 0 1 0,2,categoryB,j,,,0,1,1,5,0,9,9,1,,,,,,,,,,,,,,,,,,,f,0,1.1070103329984704,,,,,,,,,,,,,,,,,,,,,,,,,,,,,,,888,001,2021_Sep_07_1438,joplin1,2021.2.3,59.93522488489446,
_train_cond.csv,1 1 1 0 0 0 0 1 1 1,6,categoryA,f,,,0,1,1,5,0,10,10,10,,,,,,,,,,,,,,,,,,,f,1,0.4088501250007539,,,,,,,,,,,,,,,,,,,,,,,,,,,,,,,888,001,2021_Sep_07_1438,joplin1,2021.2.3,59.93522488489446,
_train_cond.csv,1 1 0 1 1 1 1 0 1 1,8,categoryA,f,,,0,1,1,5,0,11,11,12,,,,,,,,,,,,,,,,,,,j,0,0.6545699589987635,,,,,,,,,,,,,,,,,,,,,,,,,,,,,,,888,001,2021_Sep_07_1438,joplin1,2021.2.3,59.93522488489446,
_train_cond.csv,1 1 1 0 1 1 0 1 1 1,8,categoryA,f,,,0,1,1,5,0,12,12,11,,,,,,,,,,,,,,,,,,,f,1,1.2979897080003866,,,,,,,,,,,,,,,,,,,,,,,,,,,,,,,888,001,2021_Sep_07_1438,joplin1,2021.2.3,59.93522488489446,
_train_cond.csv,0 0 1 0 0 0 0 1 0 0,2,categoryB,j,,,0,1,1,5,0,13,13,5,,,,,,,,,,,,,,,,,,,j,1,0.6111758750012086,,,,,,,,,,,,,,,,,,,,,,,,,,,,,,,888,001,2021_Sep_07_1438,joplin1,2021.2.3,59.93522488489446,
_train_cond.csv,0 0 1 1 1 1 1 1 0 0,6,categoryA,f,,,0,1,1,5,1,0,14,13,,,,,,,,,,,,,,,,,,,j,0,0.7050864579978224,,,,,,,,,,,,,,,,,,,,,,,,,,,,,,,888,001,2021_Sep_07_1438,joplin1,2021.2.3,59.93522488489446,
_train_cond.csv,1 0 0 0 0 0 0 0 0 1,2,categoryB,j,,,0,1,1,5,1,1,15,0,,,,,,,,,,,,,,,,,,,f,0,0.594420582998282,,,,,,,,,,,,,,,,,,,,,,,,,,,,,,,888,001,2021_Sep_07_1438,joplin1,2021.2.3,59.93522488489446,
_train_cond.csv,1 0 1 1 1 1 1 1 0 1,8,categoryA,f,,,0,1,1,5,1,2,16,8,,,,,,,,,,,,,,,,,,,j,0,0.3106361669997568,,,,,,,,,,,,,,,,,,,,,,,,,,,,,,,888,001,2021_Sep_07_1438,joplin1,2021.2.3,59.93522488489446,
_train_cond.csv,0 0 1 0 1 1 0 1 0 0,4,categoryB,j,,,0,1,1,5,1,3,17,2,,,,,,,,,,,,,,,,,,,f,0,0.7035854169989761,,,,,,,,,,,,,,,,,,,,,,,,,,,,,,,888,001,2021_Sep_07_1438,joplin1,2021.2.3,59.93522488489446,
_train_cond.csv,1 1 0 1 0 0 1 0 1 1,6,categoryA,f,,,0,1,1,5,1,4,18,9,,,,,,,,,,,,,,,,,,,f,1,0.5134162080030364,,,,,,,,,,,,,,,,,,,,,,,,,,,,,,,888,001,2021_Sep_07_1438,joplin1,2021.2.3,59.93522488489446,
_train_cond.csv,1 1 0 0 0 0 0 0 1 1,4,categoryB,j,,,0,1,1,5,1,5,19,6,,,,,,,,,,,,,,,,,,,j,1,0.7707587500008231,,,,,,,,,,,,,,,,,,,,,,,,,,,,,,,888,001,2021_Sep_07_1438,joplin1,2021.2.3,59.93522488489446,
_train_cond.csv,0 0 0 1 1 1 1 0 0 0,4,categoryB,j,,,0,1,1,5,1,6,20,3,,,,,,,,,,,,,,,,,,,f,0,0.49731387499923585,,,,,,,,,,,,,,,,,,,,,,,,,,,,,,,888,001,2021_Sep_07_1438,joplin1,2021.2.3,59.93522488489446,
_train_cond.csv,1 1 1 0 0 0 0 1 1 1,6,categoryA,f,,,0,1,1,5,1,7,21,10,,,,,,,,,,,,,,,,,,,j,0,0.38684987499800627,,,,,,,,,,,,,,,,,,,,,,,,,,,,,,,888,001,2021_Sep_07_1438,joplin1,2021.2.3,59.93522488489446,
_train_cond.csv,0 1 0 0 0 0 0 0 1 0,2,categoryB,j,,,0,1,1,5,1,8,22,1,,,,,,,,,,,,,,,,,,,f,0,0.8397084579992224,,,,,,,,,,,,,,,,,,,,,,,,,,,,,,,888,001,2021_Sep_07_1438,joplin1,2021.2.3,59.93522488489446,
_train_cond.csv,0 0 1 0 0 0 0 1 0 0,2,categoryB,j,,,0,1,1,5,1,9,23,5,,,,,,,,,,,,,,,,,,,j,1,0.6843256249994738,,,,,,,,,,,,,,,,,,,,,,,,,,,,,,,888,001,2021_Sep_07_1438,joplin1,2021.2.3,59.93522488489446,
_train_cond.csv,0 1 1 1 1 1 1 1 1 0,8,categoryA,f,,,0,1,1,5,1,10,24,7,,,,,,,,,,,,,,,,,,,j,0,0.5504838750021008,,,,,,,,,,,,,,,,,,,,,,,,,,,,,,,888,001,2021_Sep_07_1438,joplin1,2021.2.3,59.93522488489446,
_train_cond.csv,1 1 1 0 1 1 0 1 1 1,8,categoryA,f,,,0,1,1,5,1,11,25,11,,,,,,,,,,,,,,,,,,,f,1,0.7267481250019046,,,,,,,,,,,,,,,,,,,,,,,,,,,,,,,888,001,2021_Sep_07_1438,joplin1,2021.2.3,59.93522488489446,
_train_cond.csv,1 1 0 1 1 1 1 0 1 1,8,categoryA,f,,,0,1,1,5,1,12,26,12,,,,,,,,,,,,,,,,,,,j,0,0.8144627920009953,,,,,,,,,,,,,,,,,,,,,,,,,,,,,,,888,001,2021_Sep_07_1438,joplin1,2021.2.3,59.93522488489446,
_train_cond.csv,0 0 0 1 0 0 1 0 0 0,2,categoryB,j,,,0,1,1,5,1,13,27,4,,,,,,,,,,,,,,,,,,,j,1,0.3970128749970172,,,,,,,,,,,,,,,,,,,,,,,,,,,,,,,888,001,2021_Sep_07_1438,joplin1,2021.2.3,59.93522488489446,
_train_cond.csv,1 0 1 1 1 1 1 1 0 1,8,categoryA,f,,,0,1,1,5,2,0,28,8,,,,,,,,,,,,,,,,,,,f,1,0.5864270419988316,,,,,,,,,,,,,,,,,,,,,,,,,,,,,,,888,001,2021_Sep_07_1438,joplin1,2021.2.3,59.93522488489446,
_train_cond.csv,0 1 1 1 1 1 1 1 1 0,8,categoryA,f,,,0,1,1,5,2,1,29,7,,,,,,,,,,,,,,,,,,,f,1,0.5677894169966748,,,,,,,,,,,,,,,,,,,,,,,,,,,,,,,888,001,2021_Sep_07_1438,joplin1,2021.2.3,59.93522488489446,
_train_cond.csv,1 1 1 0 1 1 0 1 1 1,8,categoryA,f,,,0,1,1,5,2,2,30,11,,,,,,,,,,,,,,,,,,,j,0,0.39121104199875845,,,,,,,,,,,,,,,,,,,,,,,,,,,,,,,888,001,2021_Sep_07_1438,joplin1,2021.2.3,59.93522488489446,
_train_cond.csv,0 1 0 0 0 0 0 0 1 0,2,categoryB,j,,,0,1,1,5,2,3,31,1,,,,,,,,,,,,,,,,,,,j,1,0.5480031250008324,,,,,,,,,,,,,,,,,,,,,,,,,,,,,,,888,001,2021_Sep_07_1438,joplin1,2021.2.3,59.93522488489446,
_train_cond.csv,1 1 0 1 1 1 1 0 1 1,8,categoryA,f,,,0,1,1,5,2,4,32,12,,,,,,,,,,,,,,,,,,,f,1,0.5893121660010365,,,,,,,,,,,,,,,,,,,,,,,,,,,,,,,888,001,2021_Sep_07_1438,joplin1,2021.2.3,59.93522488489446,
_train_cond.csv,1 1 0 0 0 0 0 0 1 1,4,categoryB,j,,,0,1,1,5,2,5,33,6,,,,,,,,,,,,,,,,,,,f,0,0.5624354169995058,,,,,,,,,,,,,,,,,,,,,,,,,,,,,,,888,001,2021_Sep_07_1438,joplin1,2021.2.3,59.93522488489446,
_train_cond.csv,0 0 1 0 0 0 0 1 0 0,2,categoryB,j,,,0,1,1,5,2,6,34,5,,,,,,,,,,,,,,,,,,,j,1,0.5607115840030019,,,,,,,,,,,,,,,,,,,,,,,,,,,,,,,888,001,2021_Sep_07_1438,joplin1,2021.2.3,59.93522488489446,
_train_cond.csv,1 1 0 1 0 0 1 0 1 1,6,categoryA,f,,,0,1,1,5,2,7,35,9,,,,,,,,,,,,,,,,,,,j,0,0.5533557910021045,,,,,,,,,,,,,,,,,,,,,,,,,,,,,,,888,001,2021_Sep_07_1438,joplin1,2021.2.3,59.93522488489446,
_train_cond.csv,0 0 1 0 1 1 0 1 0 0,4,categoryB,j,,,0,1,1,5,2,8,36,2,,,,,,,,,,,,,,,,,,,f,0,0.4553054999996675,,,,,,,,,,,,,,,,,,,,,,,,,,,,,,,888,001,2021_Sep_07_1438,joplin1,2021.2.3,59.93522488489446,
_train_cond.csv,1 1 1 0 0 0 0 1 1 1,6,categoryA,f,,,0,1,1,5,2,9,37,10,,,,,,,,,,,,,,,,,,,f,1,0.5951092499999504,,,,,,,,,,,,,,,,,,,,,,,,,,,,,,,888,001,2021_Sep_07_1438,joplin1,2021.2.3,59.93522488489446,
_train_cond.csv,0 0 0 1 1 1 1 0 0 0,4,categoryB,j,,,0,1,1,5,2,10,38,3,,,,,,,,,,,,,,,,,,,j,1,0.6094847079984902,,,,,,,,,,,,,,,,,,,,,,,,,,,,,,,888,001,2021_Sep_07_1438,joplin1,2021.2.3,59.93522488489446,
_train_cond.csv,0 0 0 1 0 0 1 0 0 0,2,categoryB,j,,,0,1,1,5,2,11,39,4,,,,,,,,,,,,,,,,,,,j,1,0.5345359579987417,,,,,,,,,,,,,,,,,,,,,,,,,,,,,,,888,001,2021_Sep_07_1438,joplin1,2021.2.3,59.93522488489446,
_train_cond.csv,0 0 1 1 1 1 1 1 0 0,6,categoryA,f,,,0,1,1,5,2,12,40,13,,,,,,,,,,,,,,,,,,,f,1,0.8072605000015756,,,,,,,,,,,,,,,,,,,,,,,,,,,,,,,888,001,2021_Sep_07_1438,joplin1,2021.2.3,59.93522488489446,
_train_cond.csv,1 0 0 0 0 0 0 0 0 1,2,categoryB,j,,,0,1,1,5,2,13,41,0,,,,,,,,,,,,,,,,,,,f,0,0.37213016700115986,,,,,,,,,,,,,,,,,,,,,,,,,,,,,,,888,001,2021_Sep_07_1438,joplin1,2021.2.3,59.93522488489446,
_train_cond.csv,,,,,,,0,1,1,5,,,,,,,,,,,,,,,,,,,,,,,,,,space,5.034505999999965,,,,,,,,,,,,,,,,,,,,,,,,,,,,,888,001,2021_Sep_07_1438,joplin1,2021.2.3,59.93522488489446,
_train_cond.csv,1 1 0 1 0 0 1 0 1 1,6,categoryA,f,,,0,2,2,6,0,0,0,9,,,,,,,,,,,,,,,,,,,j,0,1.2689537080004811,,,,,,,,,,,,,,,,,,,,,,,,,,,,,,,888,001,2021_Sep_07_1438,joplin1,2021.2.3,59.93522488489446,
_train_cond.csv,0 0 0 1 1 1 1 0 0 0,4,categoryB,j,,,0,2,2,6,0,1,1,3,,,,,,,,,,,,,,,,,,,j,1,0.3756822089999332,,,,,,,,,,,,,,,,,,,,,,,,,,,,,,,888,001,2021_Sep_07_1438,joplin1,2021.2.3,59.93522488489446,
_train_cond.csv,0 0 0 1 0 0 1 0 0 0,2,categoryB,j,,,0,2,2,6,0,2,2,4,,,,,,,,,,,,,,,,,,,j,1,0.5979047910004738,,,,,,,,,,,,,,,,,,,,,,,,,,,,,,,888,001,2021_Sep_07_1438,joplin1,2021.2.3,59.93522488489446,
_train_cond.csv,1 0 0 0 0 0 0 0 0 1,2,categoryB,j,,,0,2,2,6,0,3,3,0,,,,,,,,,,,,,,,,,,,f,0,0.3810939579998376,,,,,,,,,,,,,,,,,,,,,,,,,,,,,,,888,001,2021_Sep_07_1438,joplin1,2021.2.3,59.93522488489446,
_train_cond.csv,1 1 0 0 0 0 0 0 1 1,4,categoryB,j,,,0,2,2,6,0,4,4,6,,,,,,,,,,,,,,,,,,,j,1,0.771955166997941,,,,,,,,,,,,,,,,,,,,,,,,,,,,,,,888,001,2021_Sep_07_1438,joplin1,2021.2.3,59.93522488489446,
_train_cond.csv,1 1 1 0 0 0 0 1 1 1,6,categoryA,f,,,0,2,2,6,0,5,5,10,,,,,,,,,,,,,,,,,,,f,1,0.4741223330020148,,,,,,,,,,,,,,,,,,,,,,,,,,,,,,,888,001,2021_Sep_07_1438,joplin1,2021.2.3,59.93522488489446,
_train_cond.csv,0 1 1 1 1 1 1 1 1 0,8,categoryA,f,,,0,2,2,6,0,6,6,7,,,,,,,,,,,,,,,,,,,j,0,0.14043470899923705,,,,,,,,,,,,,,,,,,,,,,,,,,,,,,,888,001,2021_Sep_07_1438,joplin1,2021.2.3,59.93522488489446,
_train_cond.csv,0 0 1 1 1 1 1 1 0 0,6,categoryA,f,,,0,2,2,6,0,7,7,13,,,,,,,,,,,,,,,,,,,j,0,0.5714570420022937,,,,,,,,,,,,,,,,,,,,,,,,,,,,,,,888,001,2021_Sep_07_1438,joplin1,2021.2.3,59.93522488489446,
_train_cond.csv,1 1 0 1 1 1 1 0 1 1,8,categoryA,f,,,0,2,2,6,0,8,8,12,,,,,,,,,,,,,,,,,,,f,1,1.004151583998464,,,,,,,,,,,,,,,,,,,,,,,,,,,,,,,888,001,2021_Sep_07_1438,joplin1,2021.2.3,59.93522488489446,
_train_cond.csv,0 0 1 0 1 1 0 1 0 0,4,categoryB,j,,,0,2,2,6,0,9,9,2,,,,,,,,,,,,,,,,,,,f,0,0.5126842919999035,,,,,,,,,,,,,,,,,,,,,,,,,,,,,,,888,001,2021_Sep_07_1438,joplin1,2021.2.3,59.93522488489446,
_train_cond.csv,0 1 0 0 0 0 0 0 1 0,2,categoryB,j,,,0,2,2,6,0,10,10,1,,,,,,,,,,,,,,,,,,,j,1,0.5059588330004772,,,,,,,,,,,,,,,,,,,,,,,,,,,,,,,888,001,2021_Sep_07_1438,joplin1,2021.2.3,59.93522488489446,
_train_cond.csv,1 1 1 0 1 1 0 1 1 1,8,categoryA,f,,,0,2,2,6,0,11,11,11,,,,,,,,,,,,,,,,,,,f,1,1.2340950420002628,,,,,,,,,,,,,,,,,,,,,,,,,,,,,,,888,001,2021_Sep_07_1438,joplin1,2021.2.3,59.93522488489446,
_train_cond.csv,0 0 1 0 0 0 0 1 0 0,2,categoryB,j,,,0,2,2,6,0,12,12,5,,,,,,,,,,,,,,,,,,,j,1,0.6528032920032274,,,,,,,,,,,,,,,,,,,,,,,,,,,,,,,888,001,2021_Sep_07_1438,joplin1,2021.2.3,59.93522488489446,
_train_cond.csv,1 0 1 1 1 1 1 1 0 1,8,categoryA,f,,,0,2,2,6,0,13,13,8,,,,,,,,,,,,,,,,,,,j,0,0.9206733329992858,,,,,,,,,,,,,,,,,,,,,,,,,,,,,,,888,001,2021_Sep_07_1438,joplin1,2021.2.3,59.93522488489446,
_train_cond.csv,1 1 0 1 1 1 1 0 1 1,8,categoryA,f,,,0,2,2,6,1,0,14,12,,,,,,,,,,,,,,,,,,,f,1,0.769612624997535,,,,,,,,,,,,,,,,,,,,,,,,,,,,,,,888,001,2021_Sep_07_1438,joplin1,2021.2.3,59.93522488489446,
_train_cond.csv,0 1 0 0 0 0 0 0 1 0,2,categoryB,j,,,0,2,2,6,1,1,15,1,,,,,,,,,,,,,,,,,,,j,1,0.7515517499996349,,,,,,,,,,,,,,,,,,,,,,,,,,,,,,,888,001,2021_Sep_07_1438,joplin1,2021.2.3,59.93522488489446,
_train_cond.csv,1 0 0 0 0 0 0 0 0 1,2,categoryB,j,,,0,2,2,6,1,2,16,0,,,,,,,,,,,,,,,,,,,j,1,0.3278895410003315,,,,,,,,,,,,,,,,,,,,,,,,,,,,,,,888,001,2021_Sep_07_1438,joplin1,2021.2.3,59.93522488489446,
_train_cond.csv,0 0 1 0 0 0 0 1 0 0,2,categoryB,j,,,0,2,2,6,1,3,17,5,,,,,,,,,,,,,,,,,,,f,0,0.3532596669974737,,,,,,,,,,,,,,,,,,,,,,,,,,,,,,,888,001,2021_Sep_07_1438,joplin1,2021.2.3,59.93522488489446,
_train_cond.csv,0 0 1 0 1 1 0 1 0 0,4,categoryB,j,,,0,2,2,6,1,4,18,2,,,,,,,,,,,,,,,,,,,j,1,0.7448636660010379,,,,,,,,,,,,,,,,,,,,,,,,,,,,,,,888,001,2021_Sep_07_1438,joplin1,2021.2.3,59.93522488489446,
_train_cond.csv,0 0 0 1 1 1 1 0 0 0,4,categoryB,j,,,0,2,2,6,1,5,19,3,,,,,,,,,,,,,,,,,,,j,1,0.5989422080019722,,,,,,,,,,,,,,,,,,,,,,,,,,,,,,,888,001,2021_Sep_07_1438,joplin1,2021.2.3,59.93522488489446,
_train_cond.csv,0 0 1 1 1 1 1 1 0 0,6,categoryA,f,,,0,2,2,6,1,6,20,13,,,,,,,,,,,,,,,,,,,j,0,0.41347637500075507,,,,,,,,,,,,,,,,,,,,,,,,,,,,,,,888,001,2021_Sep_07_1438,joplin1,2021.2.3,59.93522488489446,
_train_cond.csv,1 1 1 0 0 0 0 1 1 1,6,categoryA,f,,,0,2,2,6,1,7,21,10,,,,,,,,,,,,,,,,,,,j,0,0.45142787499935366,,,,,,,,,,,,,,,,,,,,,,,,,,,,,,,888,001,2021_Sep_07_1438,joplin1,2021.2.3,59.93522488489446,
_train_cond.csv,1 1 0 0 0 0 0 0 1 1,4,categoryB,j,,,0,2,2,6,1,8,22,6,,,,,,,,,,,,,,,,,,,f,0,0.6872762079983659,,,,,,,,,,,,,,,,,,,,,,,,,,,,,,,888,001,2021_Sep_07_1438,joplin1,2021.2.3,59.93522488489446,
_train_cond.csv,0 1 1 1 1 1 1 1 1 0,8,categoryA,f,,,0,2,2,6,1,9,23,7,,,,,,,,,,,,,,,,,,,f,1,0.5609199999998964,,,,,,,,,,,,,,,,,,,,,,,,,,,,,,,888,001,2021_Sep_07_1438,joplin1,2021.2.3,59.93522488489446,
_train_cond.csv,0 0 0 1 0 0 1 0 0 0,2,categoryB,j,,,0,2,2,6,1,10,24,4,,,,,,,,,,,,,,,,,,,f,0,0.45511045799867134,,,,,,,,,,,,,,,,,,,,,,,,,,,,,,,888,001,2021_Sep_07_1438,joplin1,2021.2.3,59.93522488489446,
_train_cond.csv,1 1 1 0 1 1 0 1 1 1,8,categoryA,f,,,0,2,2,6,1,11,25,11,,,,,,,,,,,,,,,,,,,j,0,0.37884916699840687,,,,,,,,,,,,,,,,,,,,,,,,,,,,,,,888,001,2021_Sep_07_1438,joplin1,2021.2.3,59.93522488489446,
_train_cond.csv,1 1 0 1 0 0 1 0 1 1,6,categoryA,f,,,0,2,2,6,1,12,26,9,,,,,,,,,,,,,,,,,,,f,1,0.30452162499932456,,,,,,,,,,,,,,,,,,,,,,,,,,,,,,,888,001,2021_Sep_07_1438,joplin1,2021.2.3,59.93522488489446,
_train_cond.csv,1 0 1 1 1 1 1 1 0 1,8,categoryA,f,,,0,2,2,6,1,13,27,8,,,,,,,,,,,,,,,,,,,j,0,0.2743960409970896,,,,,,,,,,,,,,,,,,,,,,,,,,,,,,,888,001,2021_Sep_07_1438,joplin1,2021.2.3,59.93522488489446,
_train_cond.csv,0 0 0 1 0 0 1 0 0 0,2,categoryB,j,,,0,2,2,6,2,0,28,4,,,,,,,,,,,,,,,,,,,f,0,1.525083666001592,,,,,,,,,,,,,,,,,,,,,,,,,,,,,,,888,001,2021_Sep_07_1438,joplin1,2021.2.3,59.93522488489446,
_train_cond.csv,1 1 1 0 1 1 0 1 1 1,8,categoryA,f,,,0,2,2,6,2,1,29,11,,,,,,,,,,,,,,,,,,,j,0,0.8053190829996311,,,,,,,,,,,,,,,,,,,,,,,,,,,,,,,888,001,2021_Sep_07_1438,joplin1,2021.2.3,59.93522488489446,
_train_cond.csv,0 0 0 1 1 1 1 0 0 0,4,categoryB,j,,,0,2,2,6,2,2,30,3,,,,,,,,,,,,,,,,,,,f,0,0.6901205829999526,,,,,,,,,,,,,,,,,,,,,,,,,,,,,,,888,001,2021_Sep_07_1438,joplin1,2021.2.3,59.93522488489446,
_train_cond.csv,1 0 1 1 1 1 1 1 0 1,8,categoryA,f,,,0,2,2,6,2,3,31,8,,,,,,,,,,,,,,,,,,,j,0,0.5248839160012722,,,,,,,,,,,,,,,,,,,,,,,,,,,,,,,888,001,2021_Sep_07_1438,joplin1,2021.2.3,59.93522488489446,
_train_cond.csv,1 1 0 0 0 0 0 0 1 1,4,categoryB,j,,,0,2,2,6,2,4,32,6,,,,,,,,,,,,,,,,,,,j,1,0.5732892919986625,,,,,,,,,,,,,,,,,,,,,,,,,,,,,,,888,001,2021_Sep_07_1438,joplin1,2021.2.3,59.93522488489446,
_train_cond.csv,1 0 0 0 0 0 0 0 0 1,2,categoryB,j,,,0,2,2,6,2,5,33,0,,,,,,,,,,,,,,,,,,,j,1,0.42803904200263787,,,,,,,,,,,,,,,,,,,,,,,,,,,,,,,888,001,2021_Sep_07_1438,joplin1,2021.2.3,59.93522488489446,
_train_cond.csv,1 1 0 1 0 0 1 0 1 1,6,categoryA,f,,,0,2,2,6,2,6,34,9,,,,,,,,,,,,,,,,,,,f,1,0.585019750000356,,,,,,,,,,,,,,,,,,,,,,,,,,,,,,,888,001,2021_Sep_07_1438,joplin1,2021.2.3,59.93522488489446,
_train_cond.csv,1 1 1 0 0 0 0 1 1 1,6,categoryA,f,,,0,2,2,6,2,7,35,10,,,,,,,,,,,,,,,,,,,f,1,0.4711665830000129,,,,,,,,,,,,,,,,,,,,,,,,,,,,,,,888,001,2021_Sep_07_1438,joplin1,2021.2.3,59.93522488489446,
_train_cond.csv,0 1 1 1 1 1 1 1 1 0,8,categoryA,f,,,0,2,2,6,2,8,36,7,,,,,,,,,,,,,,,,,,,j,0,0.410449916998914,,,,,,,,,,,,,,,,,,,,,,,,,,,,,,,888,001,2021_Sep_07_1438,joplin1,2021.2.3,59.93522488489446,
_train_cond.csv,0 0 1 1 1 1 1 1 0 0,6,categoryA,f,,,0,2,2,6,2,9,37,13,,,,,,,,,,,,,,,,,,,f,1,0.5755871660003322,,,,,,,,,,,,,,,,,,,,,,,,,,,,,,,888,001,2021_Sep_07_1438,joplin1,2021.2.3,59.93522488489446,
_train_cond.csv,1 1 0 1 1 1 1 0 1 1,8,categoryA,f,,,0,2,2,6,2,10,38,12,,,,,,,,,,,,,,,,,,,f,1,0.35039412500191247,,,,,,,,,,,,,,,,,,,,,,,,,,,,,,,888,001,2021_Sep_07_1438,joplin1,2021.2.3,59.93522488489446,
_train_cond.csv,0 0 1 0 0 0 0 1 0 0,2,categoryB,j,,,0,2,2,6,2,11,39,5,,,,,,,,,,,,,,,,,,,f,0,0.3346802910018596,,,,,,,,,,,,,,,,,,,,,,,,,,,,,,,888,001,2021_Sep_07_1438,joplin1,2021.2.3,59.93522488489446,
_train_cond.csv,0 0 1 0 1 1 0 1 0 0,4,categoryB,j,,,0,2,2,6,2,12,40,2,,,,,,,,,,,,,,,,,,,j,1,0.302982624998549,,,,,,,,,,,,,,,,,,,,,,,,,,,,,,,888,001,2021_Sep_07_1438,joplin1,2021.2.3,59.93522488489446,
_train_cond.csv,0 1 0 0 0 0 0 0 1 0,2,categoryB,j,,,0,2,2,6,2,13,41,1,,,,,,,,,,,,,,,,,,,f,0,0.4313971670017054,,,,,,,,,,,,,,,,,,,,,,,,,,,,,,,888,001,2021_Sep_07_1438,joplin1,2021.2.3,59.93522488489446,
_train_cond.csv,,,,,,,0,2,2,6,,,,,,,,,,,,,,,,,,,,,,,,,,space,5.396516041997529,,,,,,,,,,,,,,,,,,,,,,,,,,,,,888,001,2021_Sep_07_1438,joplin1,2021.2.3,59.93522488489446,
_train_cond.csv,1 0 1 1 1 1 1 1 0 1,8,categoryA,f,,,0,3,3,7,0,0,0,8,,,,,,,,,,,,,,,,,,,f,1,0.6975048749991402,,,,,,,,,,,,,,,,,,,,,,,,,,,,,,,888,001,2021_Sep_07_1438,joplin1,2021.2.3,59.93522488489446,
_train_cond.csv,0 0 1 0 0 0 0 1 0 0,2,categoryB,j,,,0,3,3,7,0,1,1,5,,,,,,,,,,,,,,,,,,,f,0,1.4270719590022054,,,,,,,,,,,,,,,,,,,,,,,,,,,,,,,888,001,2021_Sep_07_1438,joplin1,2021.2.3,59.93522488489446,
_train_cond.csv,1 1 1 0 0 0 0 1 1 1,6,categoryA,f,,,0,3,3,7,0,2,2,10,,,,,,,,,,,,,,,,,,,j,0,0.5752143750032701,,,,,,,,,,,,,,,,,,,,,,,,,,,,,,,888,001,2021_Sep_07_1438,joplin1,2021.2.3,59.93522488489446,
_train_cond.csv,1 1 1 0 1 1 0 1 1 1,8,categoryA,f,,,0,3,3,7,0,3,3,11,,,,,,,,,,,,,,,,,,,j,0,1.0780051249967073,,,,,,,,,,,,,,,,,,,,,,,,,,,,,,,888,001,2021_Sep_07_1438,joplin1,2021.2.3,59.93522488489446,
_train_cond.csv,1 1 0 1 1 1 1 0 1 1,8,categoryA,f,,,0,3,3,7,0,4,4,12,,,,,,,,,,,,,,,,,,,f,1,0.6894310829993628,,,,,,,,,,,,,,,,,,,,,,,,,,,,,,,888,001,2021_Sep_07_1438,joplin1,2021.2.3,59.93522488489446,
_train_cond.csv,1 0 0 0 0 0 0 0 0 1,2,categoryB,j,,,0,3,3,7,0,5,5,0,,,,,,,,,,,,,,,,,,,f,0,1.8032088750005641,,,,,,,,,,,,,,,,,,,,,,,,,,,,,,,888,001,2021_Sep_07_1438,joplin1,2021.2.3,59.93522488489446,
_train_cond.csv,0 0 0 1 1 1 1 0 0 0,4,categoryB,j,,,0,3,3,7,0,6,6,3,,,,,,,,,,,,,,,,,,,j,1,1.1845073340009549,,,,,,,,,,,,,,,,,,,,,,,,,,,,,,,888,001,2021_Sep_07_1438,joplin1,2021.2.3,59.93522488489446,
_train_cond.csv,1 1 0 0 0 0 0 0 1 1,4,categoryB,j,,,0,3,3,7,0,7,7,6,,,,,,,,,,,,,,,,,,,f,0,0.8697916669989354,,,,,,,,,,,,,,,,,,,,,,,,,,,,,,,888,001,2021_Sep_07_1438,joplin1,2021.2.3,59.93522488489446,
_train_cond.csv,0 0 1 0 1 1 0 1 0 0,4,categoryB,j,,,0,3,3,7,0,8,8,2,,,,,,,,,,,,,,,,,,,j,1,0.7283775409996451,,,,,,,,,,,,,,,,,,,,,,,,,,,,,,,888,001,2021_Sep_07_1438,joplin1,2021.2.3,59.93522488489446,
_train_cond.csv,0 1 1 1 1 1 1 1 1 0,8,categoryA,f,,,0,3,3,7,0,9,9,7,,,,,,,,,,,,,,,,,,,j,0,0.5130627500002447,,,,,,,,,,,,,,,,,,,,,,,,,,,,,,,888,001,2021_Sep_07_1438,joplin1,2021.2.3,59.93522488489446,
_train_cond.csv,0 0 0 1 0 0 1 0 0 0,2,categoryB,j,,,0,3,3,7,0,10,10,4,,,,,,,,,,,,,,,,,,,j,1,0.994915333998506,,,,,,,,,,,,,,,,,,,,,,,,,,,,,,,888,001,2021_Sep_07_1438,joplin1,2021.2.3,59.93522488489446,
_train_cond.csv,0 0 1 1 1 1 1 1 0 0,6,categoryA,f,,,0,3,3,7,0,11,11,13,,,,,,,,,,,,,,,,,,,f,1,0.4154780830031086,,,,,,,,,,,,,,,,,,,,,,,,,,,,,,,888,001,2021_Sep_07_1438,joplin1,2021.2.3,59.93522488489446,
_train_cond.csv,1 1 0 1 0 0 1 0 1 1,6,categoryA,f,,,0,3,3,7,0,12,12,9,,,,,,,,,,,,,,,,,,,j,0,0.8038001249988156,,,,,,,,,,,,,,,,,,,,,,,,,,,,,,,888,001,2021_Sep_07_1438,joplin1,2021.2.3,59.93522488489446,
_train_cond.csv,0 1 0 0 0 0 0 0 1 0,2,categoryB,j,,,0,3,3,7,0,13,13,1,,,,,,,,,,,,,,,,,,,f,0,0.40116875000239816,,,,,,,,,,,,,,,,,,,,,,,,,,,,,,,888,001,2021_Sep_07_1438,joplin1,2021.2.3,59.93522488489446,
_train_cond.csv,0 0 1 1 1 1 1 1 0 0,6,categoryA,f,,,0,3,3,7,1,0,14,13,,,,,,,,,,,,,,,,,,,j,0,0.7086208750006335,,,,,,,,,,,,,,,,,,,,,,,,,,,,,,,888,001,2021_Sep_07_1438,joplin1,2021.2.3,59.93522488489446,
_train_cond.csv,0 0 0 1 1 1 1 0 0 0,4,categoryB,j,,,0,3,3,7,1,1,15,3,,,,,,,,,,,,,,,,,,,f,0,0.34312108299855026,,,,,,,,,,,,,,,,,,,,,,,,,,,,,,,888,001,2021_Sep_07_1438,joplin1,2021.2.3,59.93522488489446,
_train_cond.csv,1 1 0 1 1 1 1 0 1 1,8,categoryA,f,,,0,3,3,7,1,2,16,12,,,,,,,,,,,,,,,,,,,j,0,0.37174600000071223,,,,,,,,,,,,,,,,,,,,,,,,,,,,,,,888,001,2021_Sep_07_1438,joplin1,2021.2.3,59.93522488489446,
_train_cond.csv,0 0 0 1 0 0 1 0 0 0,2,categoryB,j,,,0,3,3,7,1,3,17,4,,,,,,,,,,,,,,,,,,,f,0,0.4189840840008401,,,,,,,,,,,,,,,,,,,,,,,,,,,,,,,888,001,2021_Sep_07_1438,joplin1,2021.2.3,59.93522488489446,
_train_cond.csv,1 1 0 0 0 0 0 0 1 1,4,categoryB,j,,,0,3,3,7,1,4,18,6,,,,,,,,,,,,,,,,,,,f,0,1.1201560829977097,,,,,,,,,,,,,,,,,,,,,,,,,,,,,,,888,001,2021_Sep_07_1438,joplin1,2021.2.3,59.93522488489446,
_train_cond.csv,1 0 1 1 1 1 1 1 0 1,8,categoryA,f,,,0,3,3,7,1,5,19,8,,,,,,,,,,,,,,,,,,,f,1,0.7527068750023318,,,,,,,,,,,,,,,,,,,,,,,,,,,,,,,888,001,2021_Sep_07_1438,joplin1,2021.2.3,59.93522488489446,
_train_cond.csv,1 0 0 0 0 0 0 0 0 1,2,categoryB,j,,,0,3,3,7,1,6,20,0,,,,,,,,,,,,,,,,,,,f,0,0.9114472500004922,,,,,,,,,,,,,,,,,,,,,,,,,,,,,,,888,001,2021_Sep_07_1438,joplin1,2021.2.3,59.93522488489446,
_train_cond.csv,1 1 0 1 0 0 1 0 1 1,6,categoryA,f,,,0,3,3,7,1,7,21,9,,,,,,,,,,,,,,,,,,,j,0,0.40059512500010896,,,,,,,,,,,,,,,,,,,,,,,,,,,,,,,888,001,2021_Sep_07_1438,joplin1,2021.2.3,59.93522488489446,
_train_cond.csv,1 1 1 0 0 0 0 1 1 1,6,categoryA,f,,,0,3,3,7,1,8,22,10,,,,,,,,,,,,,,,,,,,f,1,1.549405834000936,,,,,,,,,,,,,,,,,,,,,,,,,,,,,,,888,001,2021_Sep_07_1438,joplin1,2021.2.3,59.93522488489446,
_train_cond.csv,1 1 1 0 1 1 0 1 1 1,8,categoryA,f,,,0,3,3,7,1,9,23,11,,,,,,,,,,,,,,,,,,,j,0,0.8862511250008538,,,,,,,,,,,,,,,,,,,,,,,,,,,,,,,888,001,2021_Sep_07_1438,joplin1,2021.2.3,59.93522488489446,
_train_cond.csv,0 1 1 1 1 1 1 1 1 0,8,categoryA,f,,,0,3,3,7,1,10,24,7,,,,,,,,,,,,,,,,,,,j,0,0.6301685830003407,,,,,,,,,,,,,,,,,,,,,,,,,,,,,,,888,001,2021_Sep_07_1438,joplin1,2021.2.3,59.93522488489446,
_train_cond.csv,0 0 1 0 1 1 0 1 0 0,4,categoryB,j,,,0,3,3,7,1,11,25,2,,,,,,,,,,,,,,,,,,,f,0,0.7240312499998254,,,,,,,,,,,,,,,,,,,,,,,,,,,,,,,888,001,2021_Sep_07_1438,joplin1,2021.2.3,59.93522488489446,
_train_cond.csv,0 0 1 0 0 0 0 1 0 0,2,categoryB,j,,,0,3,3,7,1,12,26,5,,,,,,,,,,,,,,,,,,,j,1,0.9001847910003562,,,,,,,,,,,,,,,,,,,,,,,,,,,,,,,888,001,2021_Sep_07_1438,joplin1,2021.2.3,59.93522488489446,
_train_cond.csv,0 1 0 0 0 0 0 0 1 0,2,categoryB,j,,,0,3,3,7,1,13,27,1,,,,,,,,,,,,,,,,,,,j,1,0.38937712500046473,,,,,,,,,,,,,,,,,,,,,,,,,,,,,,,888,001,2021_Sep_07_1438,joplin1,2021.2.3,59.93522488489446,
_train_cond.csv,1 1 0 0 0 0 0 0 1 1,4,categoryB,j,,,0,3,3,7,2,0,28,6,,,,,,,,,,,,,,,,,,,j,1,1.0920395840003039,,,,,,,,,,,,,,,,,,,,,,,,,,,,,,,888,001,2021_Sep_07_1438,joplin1,2021.2.3,59.93522488489446,
_train_cond.csv,0 0 1 0 1 1 0 1 0 0,4,categoryB,j,,,0,3,3,7,2,1,29,2,,,,,,,,,,,,,,,,,,,f,0,0.7901417920002132,,,,,,,,,,,,,,,,,,,,,,,,,,,,,,,888,001,2021_Sep_07_1438,joplin1,2021.2.3,59.93522488489446,
_train_cond.csv,0 0 1 0 0 0 0 1 0 0,2,categoryB,j,,,0,3,3,7,2,2,30,5,,,,,,,,,,,,,,,,,,,j,1,0.4929608329985058,,,,,,,,,,,,,,,,,,,,,,,,,,,,,,,888,001,2021_Sep_07_1438,joplin1,2021.2.3,59.93522488489446,
_train_cond.csv,1 0 1 1 1 1 1 1 0 1,8,categoryA,f,,,0,3,3,7,2,3,31,8,,,,,,,,,,,,,,,,,,,f,1,0.6310892080000485,,,,,,,,,,,,,,,,,,,,,,,,,,,,,,,888,001,2021_Sep_07_1438,joplin1,2021.2.3,59.93522488489446,
_train_cond.csv,1 1 0 1 0 0 1 0 1 1,6,categoryA,f,,,0,3,3,7,2,4,32,9,,,,,,,,,,,,,,,,,,,j,0,0.3474368749994028,,,,,,,,,,,,,,,,,,,,,,,,,,,,,,,888,001,2021_Sep_07_1438,joplin1,2021.2.3,59.93522488489446,
_train_cond.csv,0 0 0 1 0 0 1 0 0 0,2,categoryB,j,,,0,3,3,7,2,5,33,4,,,,,,,,,,,,,,,,,,,f,0,0.9466376669988676,,,,,,,,,,,,,,,,,,,,,,,,,,,,,,,888,001,2021_Sep_07_1438,joplin1,2021.2.3,59.93522488489446,
_train_cond.csv,1 0 0 0 0 0 0 0 0 1,2,categoryB,j,,,0,3,3,7,2,6,34,0,,,,,,,,,,,,,,,,,,,j,1,0.5375774999993155,,,,,,,,,,,,,,,,,,,,,,,,,,,,,,,888,001,2021_Sep_07_1438,joplin1,2021.2.3,59.93522488489446,
_train_cond.csv,1 1 1 0 0 0 0 1 1 1,6,categoryA,f,,,0,3,3,7,2,7,35,10,,,,,,,,,,,,,,,,,,,j,0,0.3935825419976027,,,,,,,,,,,,,,,,,,,,,,,,,,,,,,,888,001,2021_Sep_07_1438,joplin1,2021.2.3,59.93522488489446,
_train_cond.csv,0 0 1 1 1 1 1 1 0 0,6,categoryA,f,,,0,3,3,7,2,8,36,13,,,,,,,,,,,,,,,,,,,j,0,0.5988418750021083,,,,,,,,,,,,,,,,,,,,,,,,,,,,,,,888,001,2021_Sep_07_1438,joplin1,2021.2.3,59.93522488489446,
_train_cond.csv,0 1 0 0 0 0 0 0 1 0,2,categoryB,j,,,0,3,3,7,2,9,37,1,,,,,,,,,,,,,,,,,,,j,1,0.8147687499986205,,,,,,,,,,,,,,,,,,,,,,,,,,,,,,,888,001,2021_Sep_07_1438,joplin1,2021.2.3,59.93522488489446,
_train_cond.csv,0 0 0 1 1 1 1 0 0 0,4,categoryB,j,,,0,3,3,7,2,10,38,3,,,,,,,,,,,,,,,,,,,f,0,0.30727208299867925,,,,,,,,,,,,,,,,,,,,,,,,,,,,,,,888,001,2021_Sep_07_1438,joplin1,2021.2.3,59.93522488489446,
_train_cond.csv,1 1 0 1 1 1 1 0 1 1,8,categoryA,f,,,0,3,3,7,2,11,39,12,,,,,,,,,,,,,,,,,,,j,0,1.1410974169994006,,,,,,,,,,,,,,,,,,,,,,,,,,,,,,,888,001,2021_Sep_07_1438,joplin1,2021.2.3,59.93522488489446,
_train_cond.csv,0 1 1 1 1 1 1 1 1 0,8,categoryA,f,,,0,3,3,7,2,12,40,7,,,,,,,,,,,,,,,,,,,f,1,0.44396833299833816,,,,,,,,,,,,,,,,,,,,,,,,,,,,,,,888,001,2021_Sep_07_1438,joplin1,2021.2.3,59.93522488489446,
_train_cond.csv,1 1 1 0 1 1 0 1 1 1,8,categoryA,f,,,0,3,3,7,2,13,41,11,,,,,,,,,,,,,,,,,,,j,0,0.7604255830010516,,,,,,,,,,,,,,,,,,,,,,,,,,,,,,,888,001,2021_Sep_07_1438,joplin1,2021.2.3,59.93522488489446,
_train_cond.csv,,,,,,,0,3,3,7,,,,,,,,,,,,,,,,,,,,,,,,,,space,8.135612792000757,,,,,,,,,,,,,,,,,,,,,,,,,,,,,888,001,2021_Sep_07_1438,joplin1,2021.2.3,59.93522488489446,
_train_cond.csv,1 1 1 0 0 0 0 1 1 1,6,categoryA,f,,,0,4,4,2,0,0,0,10,,,,,,,,,,,,,,,,,,,j,0,0.22871120799754863,,,,,,,,,,,,,,,,,,,,,,,,,,,,,,,888,001,2021_Sep_07_1438,joplin1,2021.2.3,59.93522488489446,
_train_cond.csv,1 1 0 1 1 1 1 0 1 1,8,categoryA,f,,,0,4,4,2,0,1,1,12,,,,,,,,,,,,,,,,,,,f,1,0.4412955830011924,,,,,,,,,,,,,,,,,,,,,,,,,,,,,,,888,001,2021_Sep_07_1438,joplin1,2021.2.3,59.93522488489446,
_train_cond.csv,1 1 0 1 0 0 1 0 1 1,6,categoryA,f,,,0,4,4,2,0,2,2,9,,,,,,,,,,,,,,,,,,,f,1,0.3335072500012757,,,,,,,,,,,,,,,,,,,,,,,,,,,,,,,888,001,2021_Sep_07_1438,joplin1,2021.2.3,59.93522488489446,
_train_cond.csv,0 1 0 0 0 0 0 0 1 0,2,categoryB,j,,,0,4,4,2,0,3,3,1,,,,,,,,,,,,,,,,,,,j,1,0.5911352910006826,,,,,,,,,,,,,,,,,,,,,,,,,,,,,,,888,001,2021_Sep_07_1438,joplin1,2021.2.3,59.93522488489446,
_train_cond.csv,0 0 1 1 1 1 1 1 0 0,6,categoryA,f,,,0,4,4,2,0,4,4,13,,,,,,,,,,,,,,,,,,,j,0,0.9249267080012942,,,,,,,,,,,,,,,,,,,,,,,,,,,,,,,888,001,2021_Sep_07_1438,joplin1,2021.2.3,59.93522488489446,
_train_cond.csv,1 1 1 0 1 1 0 1 1 1,8,categoryA,f,,,0,4,4,2,0,5,5,11,,,,,,,,,,,,,,,,,,,f,1,0.7254353749995062,,,,,,,,,,,,,,,,,,,,,,,,,,,,,,,888,001,2021_Sep_07_1438,joplin1,2021.2.3,59.93522488489446,
_train_cond.csv,0 0 1 0 1 1 0 1 0 0,4,categoryB,j,,,0,4,4,2,0,6,6,2,,,,,,,,,,,,,,,,,,,j,1,0.8927891659986926,,,,,,,,,,,,,,,,,,,,,,,,,,,,,,,888,001,2021_Sep_07_1438,joplin1,2021.2.3,59.93522488489446,
_train_cond.csv,0 0 0 1 0 0 1 0 0 0,2,categoryB,j,,,0,4,4,2,0,7,7,4,,,,,,,,,,,,,,,,,,,f,0,0.534320792001381,,,,,,,,,,,,,,,,,,,,,,,,,,,,,,,888,001,2021_Sep_07_1438,joplin1,2021.2.3,59.93522488489446,
_train_cond.csv,1 1 0 0 0 0 0 0 1 1,4,categoryB,j,,,0,4,4,2,0,8,8,6,,,,,,,,,,,,,,,,,,,j,1,1.0476323750008305,,,,,,,,,,,,,,,,,,,,,,,,,,,,,,,888,001,2021_Sep_07_1438,joplin1,2021.2.3,59.93522488489446,
_train_cond.csv,0 0 1 0 0 0 0 1 0 0,2,categoryB,j,,,0,4,4,2,0,9,9,5,,,,,,,,,,,,,,,,,,,j,1,0.700067667003168,,,,,,,,,,,,,,,,,,,,,,,,,,,,,,,888,001,2021_Sep_07_1438,joplin1,2021.2.3,59.93522488489446,
_train_cond.csv,1 0 1 1 1 1 1 1 0 1,8,categoryA,f,,,0,4,4,2,0,10,10,8,,,,,,,,,,,,,,,,,,,f,1,0.3660935000007157,,,,,,,,,,,,,,,,,,,,,,,,,,,,,,,888,001,2021_Sep_07_1438,joplin1,2021.2.3,59.93522488489446,
_train_cond.csv,0 0 0 1 1 1 1 0 0 0,4,categoryB,j,,,0,4,4,2,0,11,11,3,,,,,,,,,,,,,,,,,,,j,1,0.7342894170033105,,,,,,,,,,,,,,,,,,,,,,,,,,,,,,,888,001,2021_Sep_07_1438,joplin1,2021.2.3,59.93522488489446,
_train_cond.csv,1 0 0 0 0 0 0 0 0 1,2,categoryB,j,,,0,4,4,2,0,12,12,0,,,,,,,,,,,,,,,,,,,f,0,0.4865988750025281,,,,,,,,,,,,,,,,,,,,,,,,,,,,,,,888,001,2021_Sep_07_1438,joplin1,2021.2.3,59.93522488489446,
_train_cond.csv,0 1 1 1 1 1 1 1 1 0,8,categoryA,f,,,0,4,4,2,0,13,13,7,,,,,,,,,,,,,,,,,,,j,0,0.6890687499981141,,,,,,,,,,,,,,,,,,,,,,,,,,,,,,,888,001,2021_Sep_07_1438,joplin1,2021.2.3,59.93522488489446,
_train_cond.csv,1 1 0 1 1 1 1 0 1 1,8,categoryA,f,,,0,4,4,2,1,0,14,12,,,,,,,,,,,,,,,,,,,j,0,0.017624666998017346,,,,,,,,,,,,,,,,,,,,,,,,,,,,,,,888,001,2021_Sep_07_1438,joplin1,2021.2.3,59.93522488489446,
_train_cond.csv,1 1 0 0 0 0 0 0 1 1,4,categoryB,j,,,0,4,4,2,1,1,15,6,,,,,,,,,,,,,,,,,,,f,0,0.5024231669995061,,,,,,,,,,,,,,,,,,,,,,,,,,,,,,,888,001,2021_Sep_07_1438,joplin1,2021.2.3,59.93522488489446,
_train_cond.csv,0 0 1 0 1 1 0 1 0 0,4,categoryB,j,,,0,4,4,2,1,2,16,2,,,,,,,,,,,,,,,,,,,j,1,0.33612233299936634,,,,,,,,,,,,,,,,,,,,,,,,,,,,,,,888,001,2021_Sep_07_1438,joplin1,2021.2.3,59.93522488489446,
_train_cond.csv,1 1 1 0 1 1 0 1 1 1,8,categoryA,f,,,0,4,4,2,1,3,17,11,,,,,,,,,,,,,,,,,,,f,1,0.5759977079978853,,,,,,,,,,,,,,,,,,,,,,,,,,,,,,,888,001,2021_Sep_07_1438,joplin1,2021.2.3,59.93522488489446,
_train_cond.csv,0 0 0 1 1 1 1 0 0 0,4,categoryB,j,,,0,4,4,2,1,4,18,3,,,,,,,,,,,,,,,,,,,j,1,1.2703698749974137,,,,,,,,,,,,,,,,,,,,,,,,,,,,,,,888,001,2021_Sep_07_1438,joplin1,2021.2.3,59.93522488489446,
_train_cond.csv,0 0 0 1 0 0 1 0 0 0,2,categoryB,j,,,0,4,4,2,1,5,19,4,,,,,,,,,,,,,,,,,,,f,0,1.2566587080000318,,,,,,,,,,,,,,,,,,,,,,,,,,,,,,,888,001,2021_Sep_07_1438,joplin1,2021.2.3,59.93522488489446,
_train_cond.csv,1 1 1 0 0 0 0 1 1 1,6,categoryA,f,,,0,4,4,2,1,6,20,10,,,,,,,,,,,,,,,,,,,j,0,0.3963139579973358,,,,,,,,,,,,,,,,,,,,,,,,,,,,,,,888,001,2021_Sep_07_1438,joplin1,2021.2.3,59.93522488489446,
_train_cond.csv,0 0 1 0 0 0 0 1 0 0,2,categoryB,j,,,0,4,4,2,1,7,21,5,,,,,,,,,,,,,,,,,,,f,0,0.6733362909981224,,,,,,,,,,,,,,,,,,,,,,,,,,,,,,,888,001,2021_Sep_07_1438,joplin1,2021.2.3,59.93522488489446,
_train_cond.csv,1 1 0 1 0 0 1 0 1 1,6,categoryA,f,,,0,4,4,2,1,8,22,9,,,,,,,,,,,,,,,,,,,j,0,1.6762427499998012,,,,,,,,,,,,,,,,,,,,,,,,,,,,,,,888,001,2021_Sep_07_1438,joplin1,2021.2.3,59.93522488489446,
_train_cond.csv,0 1 0 0 0 0 0 0 1 0,2,categoryB,j,,,0,4,4,2,1,9,23,1,,,,,,,,,,,,,,,,,,,f,0,1.1410646250005811,,,,,,,,,,,,,,,,,,,,,,,,,,,,,,,888,001,2021_Sep_07_1438,joplin1,2021.2.3,59.93522488489446,
_train_cond.csv,0 0 1 1 1 1 1 1 0 0,6,categoryA,f,,,0,4,4,2,1,10,24,13,,,,,,,,,,,,,,,,,,,j,0,0.7090506669992465,,,,,,,,,,,,,,,,,,,,,,,,,,,,,,,888,001,2021_Sep_07_1438,joplin1,2021.2.3,59.93522488489446,
_train_cond.csv,1 0 1 1 1 1 1 1 0 1,8,categoryA,f,,,0,4,4,2,1,11,25,8,,,,,,,,,,,,,,,,,,,f,1,0.694644375002099,,,,,,,,,,,,,,,,,,,,,,,,,,,,,,,888,001,2021_Sep_07_1438,joplin1,2021.2.3,59.93522488489446,
_train_cond.csv,1 0 0 0 0 0 0 0 0 1,2,categoryB,j,,,0,4,4,2,1,12,26,0,,,,,,,,,,,,,,,,,,,f,0,1.1919131670001661,,,,,,,,,,,,,,,,,,,,,,,,,,,,,,,888,001,2021_Sep_07_1438,joplin1,2021.2.3,59.93522488489446,
_train_cond.csv,0 1 1 1 1 1 1 1 1 0,8,categoryA,f,,,0,4,4,2,1,13,27,7,,,,,,,,,,,,,,,,,,,f,1,1.158440833001805,,,,,,,,,,,,,,,,,,,,,,,,,,,,,,,888,001,2021_Sep_07_1438,joplin1,2021.2.3,59.93522488489446,
_train_cond.csv,0 1 1 1 1 1 1 1 1 0,8,categoryA,f,,,0,4,4,2,2,0,28,7,,,,,,,,,,,,,,,,,,,f,1,0.5822250410019478,,,,,,,,,,,,,,,,,,,,,,,,,,,,,,,888,001,2021_Sep_07_1438,joplin1,2021.2.3,59.93522488489446,
_train_cond.csv,0 0 1 0 1 1 0 1 0 0,4,categoryB,j,,,0,4,4,2,2,1,29,2,,,,,,,,,,,,,,,,,,,f,0,0.30889625000054366,,,,,,,,,,,,,,,,,,,,,,,,,,,,,,,888,001,2021_Sep_07_1438,joplin1,2021.2.3,59.93522488489446,
_train_cond.csv,1 1 1 0 0 0 0 1 1 1,6,categoryA,f,,,0,4,4,2,2,2,30,10,,,,,,,,,,,,,,,,,,,f,1,0.7036375000025146,,,,,,,,,,,,,,,,,,,,,,,,,,,,,,,888,001,2021_Sep_07_1438,joplin1,2021.2.3,59.93522488489446,
_train_cond.csv,0 0 1 0 0 0 0 1 0 0,2,categoryB,j,,,0,4,4,2,2,3,31,5,,,,,,,,,,,,,,,,,,,f,0,1.0640950830020302,,,,,,,,,,,,,,,,,,,,,,,,,,,,,,,888,001,2021_Sep_07_1438,joplin1,2021.2.3,59.93522488489446,
_train_cond.csv,0 1 0 0 0 0 0 0 1 0,2,categoryB,j,,,0,4,4,2,2,4,32,1,,,,,,,,,,,,,,,,,,,f,0,0.5461786249979923,,,,,,,,,,,,,,,,,,,,,,,,,,,,,,,888,001,2021_Sep_07_1438,joplin1,2021.2.3,59.93522488489446,
_train_cond.csv,1 1 0 1 1 1 1 0 1 1,8,categoryA,f,,,0,4,4,2,2,5,33,12,,,,,,,,,,,,,,,,,,,j,0,0.46728404099849286,,,,,,,,,,,,,,,,,,,,,,,,,,,,,,,888,001,2021_Sep_07_1438,joplin1,2021.2.3,59.93522488489446,
_train_cond.csv,1 1 1 0 1 1 0 1 1 1,8,categoryA,f,,,0,4,4,2,2,6,34,11,,,,,,,,,,,,,,,,,,,j,0,0.39037712500066846,,,,,,,,,,,,,,,,,,,,,,,,,,,,,,,888,001,2021_Sep_07_1438,joplin1,2021.2.3,59.93522488489446,
_train_cond.csv,1 1 0 0 0 0 0 0 1 1,4,categoryB,j,,,0,4,4,2,2,7,35,6,,,,,,,,,,,,,,,,,,,f,0,0.7645009160005429,,,,,,,,,,,,,,,,,,,,,,,,,,,,,,,888,001,2021_Sep_07_1438,joplin1,2021.2.3,59.93522488489446,
_train_cond.csv,0 0 0 1 0 0 1 0 0 0,2,categoryB,j,,,0,4,4,2,2,8,36,4,,,,,,,,,,,,,,,,,,,j,1,0.5958144169999287,,,,,,,,,,,,,,,,,,,,,,,,,,,,,,,888,001,2021_Sep_07_1438,joplin1,2021.2.3,59.93522488489446,
_train_cond.csv,1 0 0 0 0 0 0 0 0 1,2,categoryB,j,,,0,4,4,2,2,9,37,0,,,,,,,,,,,,,,,,,,,f,0,0.8417917500009935,,,,,,,,,,,,,,,,,,,,,,,,,,,,,,,888,001,2021_Sep_07_1438,joplin1,2021.2.3,59.93522488489446,
_train_cond.csv,1 0 1 1 1 1 1 1 0 1,8,categoryA,f,,,0,4,4,2,2,10,38,8,,,,,,,,,,,,,,,,,,,j,0,0.40652654099903884,,,,,,,,,,,,,,,,,,,,,,,,,,,,,,,888,001,2021_Sep_07_1438,joplin1,2021.2.3,59.93522488489446,
_train_cond.csv,1 1 0 1 0 0 1 0 1 1,6,categoryA,f,,,0,4,4,2,2,11,39,9,,,,,,,,,,,,,,,,,,,f,1,0.41803937499935273,,,,,,,,,,,,,,,,,,,,,,,,,,,,,,,888,001,2021_Sep_07_1438,joplin1,2021.2.3,59.93522488489446,
_train_cond.csv,0 0 1 1 1 1 1 1 0 0,6,categoryA,f,,,0,4,4,2,2,12,40,13,,,,,,,,,,,,,,,,,,,f,1,1.0626114170008805,,,,,,,,,,,,,,,,,,,,,,,,,,,,,,,888,001,2021_Sep_07_1438,joplin1,2021.2.3,59.93522488489446,
_train_cond.csv,0 0 0 1 1 1 1 0 0 0,4,categoryB,j,,,0,4,4,2,2,13,41,3,,,,,,,,,,,,,,,,,,,j,1,0.5297289999980421,,,,,,,,,,,,,,,,,,,,,,,,,,,,,,,888,001,2021_Sep_07_1438,joplin1,2021.2.3,59.93522488489446,
_train_cond.csv,,,,,,,0,4,4,2,,,,,,,,,,,,,,,,,,,,,,,,,,space,3.323519875000784,,,,,,,,,,,,,,,,,,,,,,,,,,,,,888,001,2021_Sep_07_1438,joplin1,2021.2.3,59.93522488489446,
_train_cond.csv,0 1 0 0 0 0 0 0 1 0,2,categoryB,j,,,0,5,5,0,0,0,0,1,,,,,,,,,,,,,,,,,,,f,0,1.1066891250011395,,,,,,,,,,,,,,,,,,,,,,,,,,,,,,,888,001,2021_Sep_07_1438,joplin1,2021.2.3,59.93522488489446,
_train_cond.csv,1 1 1 0 0 0 0 1 1 1,6,categoryA,f,,,0,5,5,0,0,1,1,10,,,,,,,,,,,,,,,,,,,f,1,0.3236923750009737,,,,,,,,,,,,,,,,,,,,,,,,,,,,,,,888,001,2021_Sep_07_1438,joplin1,2021.2.3,59.93522488489446,
_train_cond.csv,1 0 0 0 0 0 0 0 0 1,2,categoryB,j,,,0,5,5,0,0,2,2,0,,,,,,,,,,,,,,,,,,,j,1,0.5171312499987835,,,,,,,,,,,,,,,,,,,,,,,,,,,,,,,888,001,2021_Sep_07_1438,joplin1,2021.2.3,59.93522488489446,
_train_cond.csv,1 1 1 0 1 1 0 1 1 1,8,categoryA,f,,,0,5,5,0,0,3,3,11,,,,,,,,,,,,,,,,,,,f,1,0.4764968340023188,,,,,,,,,,,,,,,,,,,,,,,,,,,,,,,888,001,2021_Sep_07_1438,joplin1,2021.2.3,59.93522488489446,
_train_cond.csv,0 0 1 0 0 0 0 1 0 0,2,categoryB,j,,,0,5,5,0,0,4,4,5,,,,,,,,,,,,,,,,,,,f,0,0.823362167000596,,,,,,,,,,,,,,,,,,,,,,,,,,,,,,,888,001,2021_Sep_07_1438,joplin1,2021.2.3,59.93522488489446,
_train_cond.csv,1 1 0 1 0 0 1 0 1 1,6,categoryA,f,,,0,5,5,0,0,5,5,9,,,,,,,,,,,,,,,,,,,j,0,1.0508414590003667,,,,,,,,,,,,,,,,,,,,,,,,,,,,,,,888,001,2021_Sep_07_1438,joplin1,2021.2.3,59.93522488489446,
_train_cond.csv,1 0 1 1 1 1 1 1 0 1,8,categoryA,f,,,0,5,5,0,0,6,6,8,,,,,,,,,,,,,,,,,,,j,0,0.7433380000002217,,,,,,,,,,,,,,,,,,,,,,,,,,,,,,,888,001,2021_Sep_07_1438,joplin1,2021.2.3,59.93522488489446,
_train_cond.csv,0 1 1 1 1 1 1 1 1 0,8,categoryA,f,,,0,5,5,0,0,7,7,7,,,,,,,,,,,,,,,,,,,f,1,0.8400029580006958,,,,,,,,,,,,,,,,,,,,,,,,,,,,,,,888,001,2021_Sep_07_1438,joplin1,2021.2.3,59.93522488489446,
_train_cond.csv,0 0 0 1 1 1 1 0 0 0,4,categoryB,j,,,0,5,5,0,0,8,8,3,,,,,,,,,,,,,,,,,,,j,1,0.48411024999950314,,,,,,,,,,,,,,,,,,,,,,,,,,,,,,,888,001,2021_Sep_07_1438,joplin1,2021.2.3,59.93522488489446,
_train_cond.csv,0 0 1 1 1 1 1 1 0 0,6,categoryA,f,,,0,5,5,0,0,9,9,13,,,,,,,,,,,,,,,,,,,f,1,0.9417800000010175,,,,,,,,,,,,,,,,,,,,,,,,,,,,,,,888,001,2021_Sep_07_1438,joplin1,2021.2.3,59.93522488489446,
_train_cond.csv,0 0 1 0 1 1 0 1 0 0,4,categoryB,j,,,0,5,5,0,0,10,10,2,,,,,,,,,,,,,,,,,,,j,1,0.6829779170002439,,,,,,,,,,,,,,,,,,,,,,,,,,,,,,,888,001,2021_Sep_07_1438,joplin1,2021.2.3,59.93522488489446,
_train_cond.csv,1 1 0 0 0 0 0 0 1 1,4,categoryB,j,,,0,5,5,0,0,11,11,6,,,,,,,,,,,,,,,,,,,f,0,0.6932342079999216,,,,,,,,,,,,,,,,,,,,,,,,,,,,,,,888,001,2021_Sep_07_1438,joplin1,2021.2.3,59.93522488489446,
_train_cond.csv,0 0 0 1 0 0 1 0 0 0,2,categoryB,j,,,0,5,5,0,0,12,12,4,,,,,,,,,,,,,,,,,,,j,1,0.5278420829999959,,,,,,,,,,,,,,,,,,,,,,,,,,,,,,,888,001,2021_Sep_07_1438,joplin1,2021.2.3,59.93522488489446,
_train_cond.csv,1 1 0 1 1 1 1 0 1 1,8,categoryA,f,,,0,5,5,0,0,13,13,12,,,,,,,,,,,,,,,,,,,j,0,0.8956004579995351,,,,,,,,,,,,,,,,,,,,,,,,,,,,,,,888,001,2021_Sep_07_1438,joplin1,2021.2.3,59.93522488489446,
_train_cond.csv,0 0 0 1 0 0 1 0 0 0,2,categoryB,j,,,0,5,5,0,1,0,14,4,,,,,,,,,,,,,,,,,,,j,1,0.6823086669974145,,,,,,,,,,,,,,,,,,,,,,,,,,,,,,,888,001,2021_Sep_07_1438,joplin1,2021.2.3,59.93522488489446,
_train_cond.csv,0 0 1 1 1 1 1 1 0 0,6,categoryA,f,,,0,5,5,0,1,1,15,13,,,,,,,,,,,,,,,,,,,f,1,1.3333582500017656,,,,,,,,,,,,,,,,,,,,,,,,,,,,,,,888,001,2021_Sep_07_1438,joplin1,2021.2.3,59.93522488489446,
_train_cond.csv,1 1 0 1 0 0 1 0 1 1,6,categoryA,f,,,0,5,5,0,1,2,16,9,,,,,,,,,,,,,,,,,,,j,0,1.1014399580017198,,,,,,,,,,,,,,,,,,,,,,,,,,,,,,,888,001,2021_Sep_07_1438,joplin1,2021.2.3,59.93522488489446,
_train_cond.csv,1 1 1 0 1 1 0 1 1 1,8,categoryA,f,,,0,5,5,0,1,3,17,11,,,,,,,,,,,,,,,,,,,f,1,0.7265200420006295,,,,,,,,,,,,,,,,,,,,,,,,,,,,,,,888,001,2021_Sep_07_1438,joplin1,2021.2.3,59.93522488489446,
_train_cond.csv,0 0 1 0 1 1 0 1 0 0,4,categoryB,j,,,0,5,5,0,1,4,18,2,,,,,,,,,,,,,,,,,,,j,1,0.8870817919996625,,,,,,,,,,,,,,,,,,,,,,,,,,,,,,,888,001,2021_Sep_07_1438,joplin1,2021.2.3,59.93522488489446,
_train_cond.csv,1 1 0 0 0 0 0 0 1 1,4,categoryB,j,,,0,5,5,0,1,5,19,6,,,,,,,,,,,,,,,,,,,f,0,0.8092065419987193,,,,,,,,,,,,,,,,,,,,,,,,,,,,,,,888,001,2021_Sep_07_1438,joplin1,2021.2.3,59.93522488489446,
_train_cond.csv,0 0 0 1 1 1 1 0 0 0,4,categoryB,j,,,0,5,5,0,1,6,20,3,,,,,,,,,,,,,,,,,,,j,1,0.7432274580023659,,,,,,,,,,,,,,,,,,,,,,,,,,,,,,,888,001,2021_Sep_07_1438,joplin1,2021.2.3,59.93522488489446,
_train_cond.csv,0 0 1 0 0 0 0 1 0 0,2,categoryB,j,,,0,5,5,0,1,7,21,5,,,,,,,,,,,,,,,,,,,j,1,0.5835461669994402,,,,,,,,,,,,,,,,,,,,,,,,,,,,,,,888,001,2021_Sep_07_1438,joplin1,2021.2.3,59.93522488489446,
_train_cond.csv,1 1 1 0 0 0 0 1 1 1,6,categoryA,f,,,0,5,5,0,1,8,22,10,,,,,,,,,,,,,,,,,,,j,0,1.028222042001289,,,,,,,,,,,,,,,,,,,,,,,,,,,,,,,888,001,2021_Sep_07_1438,joplin1,2021.2.3,59.93522488489446,
_train_cond.csv,0 1 1 1 1 1 1 1 1 0,8,categoryA,f,,,0,5,5,0,1,9,23,7,,,,,,,,,,,,,,,,,,,f,1,0.7436002499998722,,,,,,,,,,,,,,,,,,,,,,,,,,,,,,,888,001,2021_Sep_07_1438,joplin1,2021.2.3,59.93522488489446,
_train_cond.csv,0 1 0 0 0 0 0 0 1 0,2,categoryB,j,,,0,5,5,0,1,10,24,1,,,,,,,,,,,,,,,,,,,j,1,0.7688566670003638,,,,,,,,,,,,,,,,,,,,,,,,,,,,,,,888,001,2021_Sep_07_1438,joplin1,2021.2.3,59.93522488489446,
_train_cond.csv,1 0 0 0 0 0 0 0 0 1,2,categoryB,j,,,0,5,5,0,1,11,25,0,,,,,,,,,,,,,,,,,,,f,0,0.6386285830012639,,,,,,,,,,,,,,,,,,,,,,,,,,,,,,,888,001,2021_Sep_07_1438,joplin1,2021.2.3,59.93522488489446,
_train_cond.csv,1 0 1 1 1 1 1 1 0 1,8,categoryA,f,,,0,5,5,0,1,12,26,8,,,,,,,,,,,,,,,,,,,j,0,0.5301231250014098,,,,,,,,,,,,,,,,,,,,,,,,,,,,,,,888,001,2021_Sep_07_1438,joplin1,2021.2.3,59.93522488489446,
_train_cond.csv,1 1 0 1 1 1 1 0 1 1,8,categoryA,f,,,0,5,5,0,1,13,27,12,,,,,,,,,,,,,,,,,,,f,1,0.2902894170001673,,,,,,,,,,,,,,,,,,,,,,,,,,,,,,,888,001,2021_Sep_07_1438,joplin1,2021.2.3,59.93522488489446,
_train_cond.csv,0 1 0 0 0 0 0 0 1 0,2,categoryB,j,,,0,5,5,0,2,0,28,1,,,,,,,,,,,,,,,,,,,f,0,0.3319135420024395,,,,,,,,,,,,,,,,,,,,,,,,,,,,,,,888,001,2021_Sep_07_1438,joplin1,2021.2.3,59.93522488489446,
_train_cond.csv,1 1 0 0 0 0 0 0 1 1,4,categoryB,j,,,0,5,5,0,2,1,29,6,,,,,,,,,,,,,,,,,,,j,1,1.0289210000009916,,,,,,,,,,,,,,,,,,,,,,,,,,,,,,,888,001,2021_Sep_07_1438,joplin1,2021.2.3,59.93522488489446,
_train_cond.csv,0 1 1 1 1 1 1 1 1 0,8,categoryA,f,,,0,5,5,0,2,2,30,7,,,,,,,,,,,,,,,,,,,f,1,0.44885858300040127,,,,,,,,,,,,,,,,,,,,,,,,,,,,,,,888,001,2021_Sep_07_1438,joplin1,2021.2.3,59.93522488489446,
_train_cond.csv,1 1 0 1 0 0 1 0 1 1,6,categoryA,f,,,0,5,5,0,2,3,31,9,,,,,,,,,,,,,,,,,,,j,0,0.4764744169988262,,,,,,,,,,,,,,,,,,,,,,,,,,,,,,,888,001,2021_Sep_07_1438,joplin1,2021.2.3,59.93522488489446,
_train_cond.csv,1 1 0 1 1 1 1 0 1 1,8,categoryA,f,,,0,5,5,0,2,4,32,12,,,,,,,,,,,,,,,,,,,f,1,0.5602370000015071,,,,,,,,,,,,,,,,,,,,,,,,,,,,,,,888,001,2021_Sep_07_1438,joplin1,2021.2.3,59.93522488489446,
_train_cond.csv,0 0 1 1 1 1 1 1 0 0,6,categoryA,f,,,0,5,5,0,2,5,33,13,,,,,,,,,,,,,,,,,,,j,0,0.4863615829999617,,,,,,,,,,,,,,,,,,,,,,,,,,,,,,,888,001,2021_Sep_07_1438,joplin1,2021.2.3,59.93522488489446,
_train_cond.csv,0 0 0 1 1 1 1 0 0 0,4,categoryB,j,,,0,5,5,0,2,6,34,3,,,,,,,,,,,,,,,,,,,f,0,0.28124691599805374,,,,,,,,,,,,,,,,,,,,,,,,,,,,,,,888,001,2021_Sep_07_1438,joplin1,2021.2.3,59.93522488489446,
_train_cond.csv,0 0 1 0 1 1 0 1 0 0,4,categoryB,j,,,0,5,5,0,2,7,35,2,,,,,,,,,,,,,,,,,,,f,0,0.5708142500006943,,,,,,,,,,,,,,,,,,,,,,,,,,,,,,,888,001,2021_Sep_07_1438,joplin1,2021.2.3,59.93522488489446,
_train_cond.csv,1 0 0 0 0 0 0 0 0 1,2,categoryB,j,,,0,5,5,0,2,8,36,0,,,,,,,,,,,,,,,,,,,f,0,0.41029987500223797,,,,,,,,,,,,,,,,,,,,,,,,,,,,,,,888,001,2021_Sep_07_1438,joplin1,2021.2.3,59.93522488489446,
_train_cond.csv,1 1 1 0 0 0 0 1 1 1,6,categoryA,f,,,0,5,5,0,2,9,37,10,,,,,,,,,,,,,,,,,,,j,0,0.597969334001391,,,,,,,,,,,,,,,,,,,,,,,,,,,,,,,888,001,2021_Sep_07_1438,joplin1,2021.2.3,59.93522488489446,
_train_cond.csv,1 0 1 1 1 1 1 1 0 1,8,categoryA,f,,,0,5,5,0,2,10,38,8,,,,,,,,,,,,,,,,,,,j,0,0.38185545799933607,,,,,,,,,,,,,,,,,,,,,,,,,,,,,,,888,001,2021_Sep_07_1438,joplin1,2021.2.3,59.93522488489446,
_train_cond.csv,0 0 1 0 0 0 0 1 0 0,2,categoryB,j,,,0,5,5,0,2,11,39,5,,,,,,,,,,,,,,,,,,,f,0,0.2841511660008109,,,,,,,,,,,,,,,,,,,,,,,,,,,,,,,888,001,2021_Sep_07_1438,joplin1,2021.2.3,59.93522488489446,
_train_cond.csv,1 1 1 0 1 1 0 1 1 1,8,categoryA,f,,,0,5,5,0,2,12,40,11,,,,,,,,,,,,,,,,,,,j,0,0.8630827089982631,,,,,,,,,,,,,,,,,,,,,,,,,,,,,,,888,001,2021_Sep_07_1438,joplin1,2021.2.3,59.93522488489446,
_train_cond.csv,0 0 0 1 0 0 1 0 0 0,2,categoryB,j,,,0,5,5,0,2,13,41,4,,,,,,,,,,,,,,,,,,,j,1,0.8256679170008283,,,,,,,,,,,,,,,,,,,,,,,,,,,,,,,888,001,2021_Sep_07_1438,joplin1,2021.2.3,59.93522488489446,
_train_cond.csv,,,,,,,0,5,5,0,,,,,,,,,,,,,,,,,,,,,,,,,,space,12.046838333000778,,,,,,,,,,,,,,,,,,,,,,,,,,,,,888,001,2021_Sep_07_1438,joplin1,2021.2.3,59.93522488489446,
_train_cond.csv,1 1 0 1 0 0 1 0 1 1,6,categoryA,f,,,0,6,6,4,0,0,0,9,,,,,,,,,,,,,,,,,,,f,1,0.480851292002626,,,,,,,,,,,,,,,,,,,,,,,,,,,,,,,888,001,2021_Sep_07_1438,joplin1,2021.2.3,59.93522488489446,
_train_cond.csv,0 1 0 0 0 0 0 0 1 0,2,categoryB,j,,,0,6,6,4,0,1,1,1,,,,,,,,,,,,,,,,,,,j,1,0.8757463749971066,,,,,,,,,,,,,,,,,,,,,,,,,,,,,,,888,001,2021_Sep_07_1438,joplin1,2021.2.3,59.93522488489446,
_train_cond.csv,0 0 0 1 1 1 1 0 0 0,4,categoryB,j,,,0,6,6,4,0,2,2,3,,,,,,,,,,,,,,,,,,,j,1,1.254614749999746,,,,,,,,,,,,,,,,,,,,,,,,,,,,,,,888,001,2021_Sep_07_1438,joplin1,2021.2.3,59.93522488489446,
_train_cond.csv,1 1 0 1 1 1 1 0 1 1,8,categoryA,f,,,0,6,6,4,0,3,3,12,,,,,,,,,,,,,,,,,,,f,1,0.5150815839988354,,,,,,,,,,,,,,,,,,,,,,,,,,,,,,,888,001,2021_Sep_07_1438,joplin1,2021.2.3,59.93522488489446,
_train_cond.csv,0 1 1 1 1 1 1 1 1 0,8,categoryA,f,,,0,6,6,4,0,4,4,7,,,,,,,,,,,,,,,,,,,f,1,0.8912075420012116,,,,,,,,,,,,,,,,,,,,,,,,,,,,,,,888,001,2021_Sep_07_1438,joplin1,2021.2.3,59.93522488489446,
_train_cond.csv,1 1 1 0 1 1 0 1 1 1,8,categoryA,f,,,0,6,6,4,0,5,5,11,,,,,,,,,,,,,,,,,,,j,0,0.9500107499989099,,,,,,,,,,,,,,,,,,,,,,,,,,,,,,,888,001,2021_Sep_07_1438,joplin1,2021.2.3,59.93522488489446,
_train_cond.csv,0 0 1 1 1 1 1 1 0 0,6,categoryA,f,,,0,6,6,4,0,6,6,13,,,,,,,,,,,,,,,,,,,j,0,1.13397545800035,,,,,,,,,,,,,,,,,,,,,,,,,,,,,,,888,001,2021_Sep_07_1438,joplin1,2021.2.3,59.93522488489446,
_train_cond.csv,0 0 0 1 0 0 1 0 0 0,2,categoryB,j,,,0,6,6,4,0,7,7,4,,,,,,,,,,,,,,,,,,,f,0,0.7028521659995022,,,,,,,,,,,,,,,,,,,,,,,,,,,,,,,888,001,2021_Sep_07_1438,joplin1,2021.2.3,59.93522488489446,
_train_cond.csv,0 0 1 0 0 0 0 1 0 0,2,categoryB,j,,,0,6,6,4,0,8,8,5,,,,,,,,,,,,,,,,,,,j,1,0.6805155420006486,,,,,,,,,,,,,,,,,,,,,,,,,,,,,,,888,001,2021_Sep_07_1438,joplin1,2021.2.3,59.93522488489446,
_train_cond.csv,1 0 1 1 1 1 1 1 0 1,8,categoryA,f,,,0,6,6,4,0,9,9,8,,,,,,,,,,,,,,,,,,,f,1,1.1073396659994614,,,,,,,,,,,,,,,,,,,,,,,,,,,,,,,888,001,2021_Sep_07_1438,joplin1,2021.2.3,59.93522488489446,
_train_cond.csv,1 1 1 0 0 0 0 1 1 1,6,categoryA,f,,,0,6,6,4,0,10,10,10,,,,,,,,,,,,,,,,,,,j,0,0.5241279999972903,,,,,,,,,,,,,,,,,,,,,,,,,,,,,,,888,001,2021_Sep_07_1438,joplin1,2021.2.3,59.93522488489446,
_train_cond.csv,0 0 1 0 1 1 0 1 0 0,4,categoryB,j,,,0,6,6,4,0,11,11,2,,,,,,,,,,,,,,,,,,,f,0,0.5891973750003672,,,,,,,,,,,,,,,,,,,,,,,,,,,,,,,888,001,2021_Sep_07_1438,joplin1,2021.2.3,59.93522488489446,
_train_cond.csv,1 1 0 0 0 0 0 0 1 1,4,categoryB,j,,,0,6,6,4,0,12,12,6,,,,,,,,,,,,,,,,,,,f,0,1.5551967499995953,,,,,,,,,,,,,,,,,,,,,,,,,,,,,,,888,001,2021_Sep_07_1438,joplin1,2021.2.3,59.93522488489446,
_train_cond.csv,1 0 0 0 0 0 0 0 0 1,2,categoryB,j,,,0,6,6,4,0,13,13,0,,,,,,,,,,,,,,,,,,,j,1,0.31465770899740164,,,,,,,,,,,,,,,,,,,,,,,,,,,,,,,888,001,2021_Sep_07_1438,joplin1,2021.2.3,59.93522488489446,
_train_cond.csv,0 1 1 1 1 1 1 1 1 0,8,categoryA,f,,,0,6,6,4,1,0,14,7,,,,,,,,,,,,,,,,,,,j,0,0.9546813330016448,,,,,,,,,,,,,,,,,,,,,,,,,,,,,,,888,001,2021_Sep_07_1438,joplin1,2021.2.3,59.93522488489446,
_train_cond.csv,1 1 1 0 1 1 0 1 1 1,8,categoryA,f,,,0,6,6,4,1,1,15,11,,,,,,,,,,,,,,,,,,,f,1,0.9937675410001248,,,,,,,,,,,,,,,,,,,,,,,,,,,,,,,888,001,2021_Sep_07_1438,joplin1,2021.2.3,59.93522488489446,
_train_cond.csv,1 0 1 1 1 1 1 1 0 1,8,categoryA,f,,,0,6,6,4,1,2,16,8,,,,,,,,,,,,,,,,,,,f,1,0.45542487499915296,,,,,,,,,,,,,,,,,,,,,,,,,,,,,,,888,001,2021_Sep_07_1438,joplin1,2021.2.3,59.93522488489446,
_train_cond.csv,1 1 0 1 0 0 1 0 1 1,6,categoryA,f,,,0,6,6,4,1,3,17,9,,,,,,,,,,,,,,,,,,,j,0,1.2823586669983342,,,,,,,,,,,,,,,,,,,,,,,,,,,,,,,888,001,2021_Sep_07_1438,joplin1,2021.2.3,59.93522488489446,
_train_cond.csv,1 1 0 0 0 0 0 0 1 1,4,categoryB,j,,,0,6,6,4,1,4,18,6,,,,,,,,,,,,,,,,,,,f,0,0.7734696669976984,,,,,,,,,,,,,,,,,,,,,,,,,,,,,,,888,001,2021_Sep_07_1438,joplin1,2021.2.3,59.93522488489446,
_train_cond.csv,0 0 1 0 0 0 0 1 0 0,2,categoryB,j,,,0,6,6,4,1,5,19,5,,,,,,,,,,,,,,,,,,,j,1,0.43536720799966133,,,,,,,,,,,,,,,,,,,,,,,,,,,,,,,888,001,2021_Sep_07_1438,joplin1,2021.2.3,59.93522488489446,
_train_cond.csv,1 1 1 0 0 0 0 1 1 1,6,categoryA,f,,,0,6,6,4,1,6,20,10,,,,,,,,,,,,,,,,,,,f,1,0.4073250840010587,,,,,,,,,,,,,,,,,,,,,,,,,,,,,,,888,001,2021_Sep_07_1438,joplin1,2021.2.3,59.93522488489446,
_train_cond.csv,0 0 0 1 0 0 1 0 0 0,2,categoryB,j,,,0,6,6,4,1,7,21,4,,,,,,,,,,,,,,,,,,,f,0,1.2372743340019952,,,,,,,,,,,,,,,,,,,,,,,,,,,,,,,888,001,2021_Sep_07_1438,joplin1,2021.2.3,59.93522488489446,
_train_cond.csv,0 1 0 0 0 0 0 0 1 0,2,categoryB,j,,,0,6,6,4,1,8,22,1,,,,,,,,,,,,,,,,,,,f,0,0.2646098750010424,,,,,,,,,,,,,,,,,,,,,,,,,,,,,,,888,001,2021_Sep_07_1438,joplin1,2021.2.3,59.93522488489446,
_train_cond.csv,0 0 1 0 1 1 0 1 0 0,4,categoryB,j,,,0,6,6,4,1,9,23,2,,,,,,,,,,,,,,,,,,,j,1,1.1159211250014778,,,,,,,,,,,,,,,,,,,,,,,,,,,,,,,888,001,2021_Sep_07_1438,joplin1,2021.2.3,59.93522488489446,
_train_cond.csv,0 0 0 1 1 1 1 0 0 0,4,categoryB,j,,,0,6,6,4,1,10,24,3,,,,,,,,,,,,,,,,,,,f,0,1.4531239999996615,,,,,,,,,,,,,,,,,,,,,,,,,,,,,,,888,001,2021_Sep_07_1438,joplin1,2021.2.3,59.93522488489446,
_train_cond.csv,1 0 0 0 0 0 0 0 0 1,2,categoryB,j,,,0,6,6,4,1,11,25,0,,,,,,,,,,,,,,,,,,,f,0,0.34403383300013957,,,,,,,,,,,,,,,,,,,,,,,,,,,,,,,888,001,2021_Sep_07_1438,joplin1,2021.2.3,59.93522488489446,
_train_cond.csv,1 1 0 1 1 1 1 0 1 1,8,categoryA,f,,,0,6,6,4,1,12,26,12,,,,,,,,,,,,,,,,,,,j,0,0.2967162500026461,,,,,,,,,,,,,,,,,,,,,,,,,,,,,,,888,001,2021_Sep_07_1438,joplin1,2021.2.3,59.93522488489446,
_train_cond.csv,0 0 1 1 1 1 1 1 0 0,6,categoryA,f,,,0,6,6,4,1,13,27,13,,,,,,,,,,,,,,,,,,,f,1,0.9545899999975518,,,,,,,,,,,,,,,,,,,,,,,,,,,,,,,888,001,2021_Sep_07_1438,joplin1,2021.2.3,59.93522488489446,
_train_cond.csv,1 1 1 0 0 0 0 1 1 1,6,categoryA,f,,,0,6,6,4,2,0,28,10,,,,,,,,,,,,,,,,,,,f,1,0.8663229170015256,,,,,,,,,,,,,,,,,,,,,,,,,,,,,,,888,001,2021_Sep_07_1438,joplin1,2021.2.3,59.93522488489446,
_train_cond.csv,0 0 1 0 0 0 0 1 0 0,2,categoryB,j,,,0,6,6,4,2,1,29,5,,,,,,,,,,,,,,,,,,,j,1,0.9485599580002599,,,,,,,,,,,,,,,,,,,,,,,,,,,,,,,888,001,2021_Sep_07_1438,joplin1,2021.2.3,59.93522488489446,
_train_cond.csv,1 0 0 0 0 0 0 0 0 1,2,categoryB,j,,,0,6,6,4,2,2,30,0,,,,,,,,,,,,,,,,,,,f,0,1.884633167002903,,,,,,,,,,,,,,,,,,,,,,,,,,,,,,,888,001,2021_Sep_07_1438,joplin1,2021.2.3,59.93522488489446,
_train_cond.csv,1 0 1 1 1 1 1 1 0 1,8,categoryA,f,,,0,6,6,4,2,3,31,8,,,,,,,,,,,,,,,,,,,f,1,1.1324989999993704,,,,,,,,,,,,,,,,,,,,,,,,,,,,,,,888,001,2021_Sep_07_1438,joplin1,2021.2.3,59.93522488489446,
_train_cond.csv,0 0 0 1 0 0 1 0 0 0,2,categoryB,j,,,0,6,6,4,2,4,32,4,,,,,,,,,,,,,,,,,,,j,1,0.5238212079966615,,,,,,,,,,,,,,,,,,,,,,,,,,,,,,,888,001,2021_Sep_07_1438,joplin1,2021.2.3,59.93522488489446,
_train_cond.csv,1 1 1 0 1 1 0 1 1 1,8,categoryA,f,,,0,6,6,4,2,5,33,11,,,,,,,,,,,,,,,,,,,f,1,0.7339788329991279,,,,,,,,,,,,,,,,,,,,,,,,,,,,,,,888,001,2021_Sep_07_1438,joplin1,2021.2.3,59.93522488489446,
_train_cond.csv,0 1 0 0 0 0 0 0 1 0,2,categoryB,j,,,0,6,6,4,2,6,34,1,,,,,,,,,,,,,,,,,,,j,1,1.0627719589974731,,,,,,,,,,,,,,,,,,,,,,,,,,,,,,,888,001,2021_Sep_07_1438,joplin1,2021.2.3,59.93522488489446,
_train_cond.csv,1 1 0 1 0 0 1 0 1 1,6,categoryA,f,,,0,6,6,4,2,7,35,9,,,,,,,,,,,,,,,,,,,f,1,0.576792416999524,,,,,,,,,,,,,,,,,,,,,,,,,,,,,,,888,001,2021_Sep_07_1438,joplin1,2021.2.3,59.93522488489446,
_train_cond.csv,0 1 1 1 1 1 1 1 1 0,8,categoryA,f,,,0,6,6,4,2,8,36,7,,,,,,,,,,,,,,,,,,,j,0,1.2474805829988327,,,,,,,,,,,,,,,,,,,,,,,,,,,,,,,888,001,2021_Sep_07_1438,joplin1,2021.2.3,59.93522488489446,
_train_cond.csv,0 0 0 1 1 1 1 0 0 0,4,categoryB,j,,,0,6,6,4,2,9,37,3,,,,,,,,,,,,,,,,,,,j,1,1.1058378750021802,,,,,,,,,,,,,,,,,,,,,,,,,,,,,,,888,001,2021_Sep_07_1438,joplin1,2021.2.3,59.93522488489446,
_train_cond.csv,1 1 0 0 0 0 0 0 1 1,4,categoryB,j,,,0,6,6,4,2,10,38,6,,,,,,,,,,,,,,,,,,,f,0,0.8099364580011752,,,,,,,,,,,,,,,,,,,,,,,,,,,,,,,888,001,2021_Sep_07_1438,joplin1,2021.2.3,59.93522488489446,
_train_cond.csv,0 0 1 1 1 1 1 1 0 0,6,categoryA,f,,,0,6,6,4,2,11,39,13,,,,,,,,,,,,,,,,,,,j,0,0.9522288750013104,,,,,,,,,,,,,,,,,,,,,,,,,,,,,,,888,001,2021_Sep_07_1438,joplin1,2021.2.3,59.93522488489446,
_train_cond.csv,0 0 1 0 1 1 0 1 0 0,4,categoryB,j,,,0,6,6,4,2,12,40,2,,,,,,,,,,,,,,,,,,,f,0,0.9988483339984668,,,,,,,,,,,,,,,,,,,,,,,,,,,,,,,888,001,2021_Sep_07_1438,joplin1,2021.2.3,59.93522488489446,
_train_cond.csv,1 1 0 1 1 1 1 0 1 1,8,categoryA,f,,,0,6,6,4,2,13,41,12,,,,,,,,,,,,,,,,,,,j,0,1.0928027500012831,,,,,,,,,,,,,,,,,,,,,,,,,,,,,,,888,001,2021_Sep_07_1438,joplin1,2021.2.3,59.93522488489446,
_train_cond.csv,,,,,,,0,6,6,4,,,,,,,,,,,,,,,,,,,,,,,,,,space,15.015182874998573,,,,,,,,,,,,,,,,,,,,,,,,,,,,,888,001,2021_Sep_07_1438,joplin1,2021.2.3,59.93522488489446,
_train_cond.csv,0 0 1 0 0 0 0 1 0 0,2,categoryB,j,,,0,7,7,3,0,0,0,5,,,,,,,,,,,,,,,,,,,j,1,1.315204624999751,,,,,,,,,,,,,,,,,,,,,,,,,,,,,,,888,001,2021_Sep_07_1438,joplin1,2021.2.3,59.93522488489446,
_train_cond.csv,1 1 0 0 0 0 0 0 1 1,4,categoryB,j,,,0,7,7,3,0,1,1,6,,,,,,,,,,,,,,,,,,,f,0,0.6681332090010983,,,,,,,,,,,,,,,,,,,,,,,,,,,,,,,888,001,2021_Sep_07_1438,joplin1,2021.2.3,59.93522488489446,
_train_cond.csv,1 0 1 1 1 1 1 1 0 1,8,categoryA,f,,,0,7,7,3,0,2,2,8,,,,,,,,,,,,,,,,,,,j,0,0.7841567499999655,,,,,,,,,,,,,,,,,,,,,,,,,,,,,,,888,001,2021_Sep_07_1438,joplin1,2021.2.3,59.93522488489446,
_train_cond.csv,0 1 1 1 1 1 1 1 1 0,8,categoryA,f,,,0,7,7,3,0,3,3,7,,,,,,,,,,,,,,,,,,,f,1,0.8928398749994813,,,,,,,,,,,,,,,,,,,,,,,,,,,,,,,888,001,2021_Sep_07_1438,joplin1,2021.2.3,59.93522488489446,
_train_cond.csv,0 0 0 1 1 1 1 0 0 0,4,categoryB,j,,,0,7,7,3,0,4,4,3,,,,,,,,,,,,,,,,,,,j,1,0.47766416699960246,,,,,,,,,,,,,,,,,,,,,,,,,,,,,,,888,001,2021_Sep_07_1438,joplin1,2021.2.3,59.93522488489446,
_train_cond.csv,0 0 0 1 0 0 1 0 0 0,2,categoryB,j,,,0,7,7,3,0,5,5,4,,,,,,,,,,,,,,,,,,,j,1,0.3126399169996148,,,,,,,,,,,,,,,,,,,,,,,,,,,,,,,888,001,2021_Sep_07_1438,joplin1,2021.2.3,59.93522488489446,
_train_cond.csv,0 1 0 0 0 0 0 0 1 0,2,categoryB,j,,,0,7,7,3,0,6,6,1,,,,,,,,,,,,,,,,,,,f,0,0.5225578749996203,,,,,,,,,,,,,,,,,,,,,,,,,,,,,,,888,001,2021_Sep_07_1438,joplin1,2021.2.3,59.93522488489446,
_train_cond.csv,1 1 0 1 1 1 1 0 1 1,8,categoryA,f,,,0,7,7,3,0,7,7,12,,,,,,,,,,,,,,,,,,,f,1,0.5228286250021483,,,,,,,,,,,,,,,,,,,,,,,,,,,,,,,888,001,2021_Sep_07_1438,joplin1,2021.2.3,59.93522488489446,
_train_cond.csv,0 0 1 0 1 1 0 1 0 0,4,categoryB,j,,,0,7,7,3,0,8,8,2,,,,,,,,,,,,,,,,,,,f,0,0.6114841249982419,,,,,,,,,,,,,,,,,,,,,,,,,,,,,,,888,001,2021_Sep_07_1438,joplin1,2021.2.3,59.93522488489446,
_train_cond.csv,1 1 1 0 0 0 0 1 1 1,6,categoryA,f,,,0,7,7,3,0,9,9,10,,,,,,,,,,,,,,,,,,,f,1,0.35240308300126344,,,,,,,,,,,,,,,,,,,,,,,,,,,,,,,888,001,2021_Sep_07_1438,joplin1,2021.2.3,59.93522488489446,
_train_cond.csv,0 0 1 1 1 1 1 1 0 0,6,categoryA,f,,,0,7,7,3,0,10,10,13,,,,,,,,,,,,,,,,,,,j,0,0.6314160840011027,,,,,,,,,,,,,,,,,,,,,,,,,,,,,,,888,001,2021_Sep_07_1438,joplin1,2021.2.3,59.93522488489446,
_train_cond.csv,1 1 1 0 1 1 0 1 1 1,8,categoryA,f,,,0,7,7,3,0,11,11,11,,,,,,,,,,,,,,,,,,,f,1,0.9722653749995516,,,,,,,,,,,,,,,,,,,,,,,,,,,,,,,888,001,2021_Sep_07_1438,joplin1,2021.2.3,59.93522488489446,
_train_cond.csv,1 1 0 1 0 0 1 0 1 1,6,categoryA,f,,,0,7,7,3,0,12,12,9,,,,,,,,,,,,,,,,,,,j,0,0.7217256250005448,,,,,,,,,,,,,,,,,,,,,,,,,,,,,,,888,001,2021_Sep_07_1438,joplin1,2021.2.3,59.93522488489446,
_train_cond.csv,1 0 0 0 0 0 0 0 0 1,2,categoryB,j,,,0,7,7,3,0,13,13,0,,,,,,,,,,,,,,,,,,,f,0,1.2349725419990136,,,,,,,,,,,,,,,,,,,,,,,,,,,,,,,888,001,2021_Sep_07_1438,joplin1,2021.2.3,59.93522488489446,
_train_cond.csv,1 0 0 0 0 0 0 0 0 1,2,categoryB,j,,,0,7,7,3,1,0,14,0,,,,,,,,,,,,,,,,,,,j,1,0.6878608749975683,,,,,,,,,,,,,,,,,,,,,,,,,,,,,,,888,001,2021_Sep_07_1438,joplin1,2021.2.3,59.93522488489446,
_train_cond.csv,0 0 1 1 1 1 1 1 0 0,6,categoryA,f,,,0,7,7,3,1,1,15,13,,,,,,,,,,,,,,,,,,,f,1,0.7943723330026842,,,,,,,,,,,,,,,,,,,,,,,,,,,,,,,888,001,2021_Sep_07_1438,joplin1,2021.2.3,59.93522488489446,
_train_cond.csv,0 1 0 0 0 0 0 0 1 0,2,categoryB,j,,,0,7,7,3,1,2,16,1,,,,,,,,,,,,,,,,,,,f,0,1.7448928330013587,,,,,,,,,,,,,,,,,,,,,,,,,,,,,,,888,001,2021_Sep_07_1438,joplin1,2021.2.3,59.93522488489446,
_train_cond.csv,0 1 1 1 1 1 1 1 1 0,8,categoryA,f,,,0,7,7,3,1,3,17,7,,,,,,,,,,,,,,,,,,,f,1,0.2560355419991538,,,,,,,,,,,,,,,,,,,,,,,,,,,,,,,888,001,2021_Sep_07_1438,joplin1,2021.2.3,59.93522488489446,
_train_cond.csv,0 0 0 1 0 0 1 0 0 0,2,categoryB,j,,,0,7,7,3,1,4,18,4,,,,,,,,,,,,,,,,,,,f,0,0.43527479100157507,,,,,,,,,,,,,,,,,,,,,,,,,,,,,,,888,001,2021_Sep_07_1438,joplin1,2021.2.3,59.93522488489446,
_train_cond.csv,1 1 1 0 1 1 0 1 1 1,8,categoryA,f,,,0,7,7,3,1,5,19,11,,,,,,,,,,,,,,,,,,,f,1,0.8785308750011609,,,,,,,,,,,,,,,,,,,,,,,,,,,,,,,888,001,2021_Sep_07_1438,joplin1,2021.2.3,59.93522488489446,
_train_cond.csv,1 1 0 1 0 0 1 0 1 1,6,categoryA,f,,,0,7,7,3,1,6,20,9,,,,,,,,,,,,,,,,,,,f,1,1.1778292500021053,,,,,,,,,,,,,,,,,,,,,,,,,,,,,,,888,001,2021_Sep_07_1438,joplin1,2021.2.3,59.93522488489446,
_train_cond.csv,0 0 1 0 0 0 0 1 0 0,2,categoryB,j,,,0,7,7,3,1,7,21,5,,,,,,,,,,,,,,,,,,,j,1,0.7217425419985375,,,,,,,,,,,,,,,,,,,,,,,,,,,,,,,888,001,2021_Sep_07_1438,joplin1,2021.2.3,59.93522488489446,
_train_cond.csv,1 1 1 0 0 0 0 1 1 1,6,categoryA,f,,,0,7,7,3,1,8,22,10,,,,,,,,,,,,,,,,,,,f,1,0.48148854200189817,,,,,,,,,,,,,,,,,,,,,,,,,,,,,,,888,001,2021_Sep_07_1438,joplin1,2021.2.3,59.93522488489446,
_train_cond.csv,1 1 0 0 0 0 0 0 1 1,4,categoryB,j,,,0,7,7,3,1,9,23,6,,,,,,,,,,,,,,,,,,,f,0,0.8453827500015905,,,,,,,,,,,,,,,,,,,,,,,,,,,,,,,888,001,2021_Sep_07_1438,joplin1,2021.2.3,59.93522488489446,
_train_cond.csv,0 0 1 0 1 1 0 1 0 0,4,categoryB,j,,,0,7,7,3,1,10,24,2,,,,,,,,,,,,,,,,,,,j,1,1.5839131669999915,,,,,,,,,,,,,,,,,,,,,,,,,,,,,,,888,001,2021_Sep_07_1438,joplin1,2021.2.3,59.93522488489446,
_train_cond.csv,1 0 1 1 1 1 1 1 0 1,8,categoryA,f,,,0,7,7,3,1,11,25,8,,,,,,,,,,,,,,,,,,,f,1,1.718621208001423,,,,,,,,,,,,,,,,,,,,,,,,,,,,,,,888,001,2021_Sep_07_1438,joplin1,2021.2.3,59.93522488489446,
_train_cond.csv,1 1 0 1 1 1 1 0 1 1,8,categoryA,f,,,0,7,7,3,1,12,26,12,,,,,,,,,,,,,,,,,,,j,0,0.9193494159990223,,,,,,,,,,,,,,,,,,,,,,,,,,,,,,,888,001,2021_Sep_07_1438,joplin1,2021.2.3,59.93522488489446,
_train_cond.csv,0 0 0 1 1 1 1 0 0 0,4,categoryB,j,,,0,7,7,3,1,13,27,3,,,,,,,,,,,,,,,,,,,f,0,0.5434060829975351,,,,,,,,,,,,,,,,,,,,,,,,,,,,,,,888,001,2021_Sep_07_1438,joplin1,2021.2.3,59.93522488489446,
_train_cond.csv,1 1 1 0 1 1 0 1 1 1,8,categoryA,f,,,0,7,7,3,2,0,28,11,,,,,,,,,,,,,,,,,,,f,1,0.3755307079991326,,,,,,,,,,,,,,,,,,,,,,,,,,,,,,,888,001,2021_Sep_07_1438,joplin1,2021.2.3,59.93522488489446,
_train_cond.csv,0 1 1 1 1 1 1 1 1 0,8,categoryA,f,,,0,7,7,3,2,1,29,7,,,,,,,,,,,,,,,,,,,j,0,0.5247969170013675,,,,,,,,,,,,,,,,,,,,,,,,,,,,,,,888,001,2021_Sep_07_1438,joplin1,2021.2.3,59.93522488489446,
_train_cond.csv,1 0 1 1 1 1 1 1 0 1,8,categoryA,f,,,0,7,7,3,2,2,30,8,,,,,,,,,,,,,,,,,,,f,1,0.5578139159988496,,,,,,,,,,,,,,,,,,,,,,,,,,,,,,,888,001,2021_Sep_07_1438,joplin1,2021.2.3,59.93522488489446,
_train_cond.csv,1 1 0 1 1 1 1 0 1 1,8,categoryA,f,,,0,7,7,3,2,3,31,12,,,,,,,,,,,,,,,,,,,j,0,0.7631965830005356,,,,,,,,,,,,,,,,,,,,,,,,,,,,,,,888,001,2021_Sep_07_1438,joplin1,2021.2.3,59.93522488489446,
_train_cond.csv,0 0 1 0 0 0 0 1 0 0,2,categoryB,j,,,0,7,7,3,2,4,32,5,,,,,,,,,,,,,,,,,,,f,0,1.0431304590019863,,,,,,,,,,,,,,,,,,,,,,,,,,,,,,,888,001,2021_Sep_07_1438,joplin1,2021.2.3,59.93522488489446,
_train_cond.csv,0 0 0 1 1 1 1 0 0 0,4,categoryB,j,,,0,7,7,3,2,5,33,3,,,,,,,,,,,,,,,,,,,j,1,0.9118119170016143,,,,,,,,,,,,,,,,,,,,,,,,,,,,,,,888,001,2021_Sep_07_1438,joplin1,2021.2.3,59.93522488489446,
_train_cond.csv,0 0 1 0 1 1 0 1 0 0,4,categoryB,j,,,0,7,7,3,2,6,34,2,,,,,,,,,,,,,,,,,,,f,0,0.7368902080015687,,,,,,,,,,,,,,,,,,,,,,,,,,,,,,,888,001,2021_Sep_07_1438,joplin1,2021.2.3,59.93522488489446,
_train_cond.csv,1 1 1 0 0 0 0 1 1 1,6,categoryA,f,,,0,7,7,3,2,7,35,10,,,,,,,,,,,,,,,,,,,f,1,0.897321666998323,,,,,,,,,,,,,,,,,,,,,,,,,,,,,,,888,001,2021_Sep_07_1438,joplin1,2021.2.3,59.93522488489446,
_train_cond.csv,0 1 0 0 0 0 0 0 1 0,2,categoryB,j,,,0,7,7,3,2,8,36,1,,,,,,,,,,,,,,,,,,,j,1,0.2663278750005702,,,,,,,,,,,,,,,,,,,,,,,,,,,,,,,888,001,2021_Sep_07_1438,joplin1,2021.2.3,59.93522488489446,
_train_cond.csv,1 1 0 0 0 0 0 0 1 1,4,categoryB,j,,,0,7,7,3,2,9,37,6,,,,,,,,,,,,,,,,,,,f,0,1.0696052919993235,,,,,,,,,,,,,,,,,,,,,,,,,,,,,,,888,001,2021_Sep_07_1438,joplin1,2021.2.3,59.93522488489446,
_train_cond.csv,0 0 0 1 0 0 1 0 0 0,2,categoryB,j,,,0,7,7,3,2,10,38,4,,,,,,,,,,,,,,,,,,,j,1,0.9689318330019887,,,,,,,,,,,,,,,,,,,,,,,,,,,,,,,888,001,2021_Sep_07_1438,joplin1,2021.2.3,59.93522488489446,
_train_cond.csv,1 1 0 1 0 0 1 0 1 1,6,categoryA,f,,,0,7,7,3,2,11,39,9,,,,,,,,,,,,,,,,,,,j,0,0.7593592500015802,,,,,,,,,,,,,,,,,,,,,,,,,,,,,,,888,001,2021_Sep_07_1438,joplin1,2021.2.3,59.93522488489446,
_train_cond.csv,0 0 1 1 1 1 1 1 0 0,6,categoryA,f,,,0,7,7,3,2,12,40,13,,,,,,,,,,,,,,,,,,,f,1,0.9903966249985388,,,,,,,,,,,,,,,,,,,,,,,,,,,,,,,888,001,2021_Sep_07_1438,joplin1,2021.2.3,59.93522488489446,
_train_cond.csv,1 0 0 0 0 0 0 0 0 1,2,categoryB,j,,,0,7,7,3,2,13,41,0,,,,,,,,,,,,,,,,,,,f,0,0.7651601249999658,,,,,,,,,,,,,,,,,,,,,,,,,,,,,,,888,001,2021_Sep_07_1438,joplin1,2021.2.3,59.93522488489446,
_train_cond.csv,,,,,,,0,7,7,3,,,,,,,,,,,,,,,,,,,,,,,,,,space,5.19513945899962,,,,,,,,,,,,,,,,,,,,,,,,,,,,,888,001,2021_Sep_07_1438,joplin1,2021.2.3,59.93522488489446,
,,,,,,,,,,,,,,,,,,,,,,,,,,,,,,,,,,,,,,q,48.93202066700178,,,,,,,,,,,,,,,,,,,,,,,,,,,888,001,2021_Sep_07_1438,joplin1,2021.2.3,59.93522488489446,
,,,,,,,,,,,,,,,,,,,,,,,,,,,,,,,,,,,,,,,,f,17.325312208999094,,,,,,,,,,,,,,,,,,,,,,,,,888,001,2021_Sep_07_1438,joplin1,2021.2.3,59.93522488489446,
,,,,,,,,,,,,,,,,,,,,,,,,,,,,,,,,,,,,,,,,,,space,23.448126749997755,,,,,,,,,,,,,,,,,,,,,,,888,001,2021_Sep_07_1438,joplin1,2021.2.3,59.93522488489446,
,,,,,,,,,,,,,,,,,,,,,,,,,,,,,,,,,,,,,,,,,,,,space,6.516445000001113,,,,,,,,,,,,,,,,,,,,,888,001,2021_Sep_07_1438,joplin1,2021.2.3,59.93522488489446,
,0 0 1 0 1 1 0 1 0 0,4,categoryB,j,genfile1.csv,1,,,,,,,,,0,0,0,0,0,0,0,4,,,,,,,,,,,,,,,,,,,,,,,,f,0,1.4815342080000846,,,,,,,,,,,,,,,,,,888,001,2021_Sep_07_1438,joplin1,2021.2.3,59.93522488489446,
,0 0 1 0 0 1 0 0 1 0,3,categoryB,j,genfile1.csv,0,,,,,,,,,0,0,0,0,0,1,1,26,,,,,,,,,,,,,,,,,,,,,,,,f,0,1.16177745800087,,,,,,,,,,,,,,,,,,888,001,2021_Sep_07_1438,joplin1,2021.2.3,59.93522488489446,
,1 1 0 0 0 1 0 1 1 1,6,categoryA,f,genfile1.csv,0,,,,,,,,,0,0,0,0,0,2,2,36,,,,,,,,,,,,,,,,,,,,,,,,f,1,1.175196207997942,,,,,,,,,,,,,,,,,,888,001,2021_Sep_07_1438,joplin1,2021.2.3,59.93522488489446,
,1 1 0 1 1 1 1 1 1 1,9,categoryA,f,genfile1.csv,0,,,,,,,,,0,0,0,0,0,3,3,55,,,,,,,,,,,,,,,,,,,,,,,,j,0,0.6297971670028346,,,,,,,,,,,,,,,,,,888,001,2021_Sep_07_1438,joplin1,2021.2.3,59.93522488489446,
,0 0 0 0 0 0 0 0 0 1,1,categoryB,j,genfile1.csv,0,,,,,,,,,0,0,0,0,0,4,4,20,,,,,,,,,,,,,,,,,,,,,,,,j,1,0.624005000001489,,,,,,,,,,,,,,,,,,888,001,2021_Sep_07_1438,joplin1,2021.2.3,59.93522488489446,
,0 0 0 1 0 1 1 0 0 1,4,categoryB,j,genfile1.csv,0,,,,,,,,,0,0,0,0,0,5,5,31,,,,,,,,,,,,,,,,,,,,,,,,f,0,1.3493467080006667,,,,,,,,,,,,,,,,,,888,001,2021_Sep_07_1438,joplin1,2021.2.3,59.93522488489446,
,1 1 1 0 1 1 0 1 1 1,8,categoryA,f,genfile1.csv,1,,,,,,,,,0,0,0,0,0,6,6,13,,,,,,,,,,,,,,,,,,,,,,,,f,1,1.1965477500016277,,,,,,,,,,,,,,,,,,888,001,2021_Sep_07_1438,joplin1,2021.2.3,59.93522488489446,
,1 1 1 1 1 1 1 1 1 1,10,categoryA,f,genfile1.csv,0,,,,,,,,,0,0,0,0,0,7,7,1,,,,,,,,,,,,,,,,,,,,,,,,j,0,1.2642137910006568,,,,,,,,,,,,,,,,,,888,001,2021_Sep_07_1438,joplin1,2021.2.3,59.93522488489446,
,1 0 1 1 1 1 1 1 0 1,8,categoryA,f,genfile1.csv,1,,,,,,,,,0,0,0,0,0,8,8,10,,,,,,,,,,,,,,,,,,,,,,,,j,0,0.7570464579985128,,,,,,,,,,,,,,,,,,888,001,2021_Sep_07_1438,joplin1,2021.2.3,59.93522488489446,
,1 1 1 0 0 0 0 1 1 1,6,categoryA,f,genfile1.csv,1,,,,,,,,,0,0,0,0,0,9,9,12,,,,,,,,,,,,,,,,,,,,,,,,f,1,1.340794707997702,,,,,,,,,,,,,,,,,,888,001,2021_Sep_07_1438,joplin1,2021.2.3,59.93522488489446,
,0 1 1 1 1 1 1 1 1 0,8,categoryA,f,genfile1.csv,1,,,,,,,,,0,0,0,0,0,10,10,9,,,,,,,,,,,,,,,,,,,,,,,,f,1,1.523281166999368,,,,,,,,,,,,,,,,,,888,001,2021_Sep_07_1438,joplin1,2021.2.3,59.93522488489446,
,0 0 0 0 0 0 0 1 0 0,1,categoryB,j,genfile1.csv,0,,,,,,,,,0,0,0,0,0,11,11,18,,,,,,,,,,,,,,,,,,,,,,,,j,1,1.3858269580014166,,,,,,,,,,,,,,,,,,888,001,2021_Sep_07_1438,joplin1,2021.2.3,59.93522488489446,
,0 0 0 1 0 0 0 1 0 0,2,categoryB,j,genfile1.csv,0,,,,,,,,,0,0,0,0,0,12,12,21,,,,,,,,,,,,,,,,,,,,,,,,f,0,0.9640487500000745,,,,,,,,,,,,,,,,,,888,001,2021_Sep_07_1438,joplin1,2021.2.3,59.93522488489446,
,1 1 1 1 0 1 1 1 1 1,9,categoryA,f,genfile1.csv,0,,,,,,,,,0,0,0,0,0,13,13,51,,,,,,,,,,,,,,,,,,,,,,,,j,0,1.4647561250021681,,,,,,,,,,,,,,,,,,888,001,2021_Sep_07_1438,joplin1,2021.2.3,59.93522488489446,
,1 1 1 1 0 1 0 0 0 1,6,categoryA,f,genfile1.csv,0,,,,,,,,,0,0,0,0,0,14,14,38,,,,,,,,,,,,,,,,,,,,,,,,f,1,1.1225549170012528,,,,,,,,,,,,,,,,,,888,001,2021_Sep_07_1438,joplin1,2021.2.3,59.93522488489446,
,0 0 1 1 1 1 1 1 0 0,6,categoryA,f,genfile1.csv,1,,,,,,,,,0,0,0,0,0,15,15,15,,,,,,,,,,,,,,,,,,,,,,,,j,0,1.8202272080015973,,,,,,,,,,,,,,,,,,888,001,2021_Sep_07_1438,joplin1,2021.2.3,59.93522488489446,
,1 1 1 1 0 1 0 1 1 1,8,categoryA,f,genfile1.csv,0,,,,,,,,,0,0,0,0,0,16,16,47,,,,,,,,,,,,,,,,,,,,,,,,f,1,0.38920854199750465,,,,,,,,,,,,,,,,,,888,001,2021_Sep_07_1438,joplin1,2021.2.3,59.93522488489446,
,0 0 0 1 1 1 1 0 0 0,4,categoryB,j,genfile1.csv,1,,,,,,,,,0,0,0,0,0,17,17,5,,,,,,,,,,,,,,,,,,,,,,,,f,0,0.6843202080017363,,,,,,,,,,,,,,,,,,888,001,2021_Sep_07_1438,joplin1,2021.2.3,59.93522488489446,
,1 0 0 0 0 0 0 0 0 1,2,categoryB,j,genfile1.csv,1,,,,,,,,,0,0,0,0,0,18,18,2,,,,,,,,,,,,,,,,,,,,,,,,f,0,1.2484976669984462,,,,,,,,,,,,,,,,,,888,001,2021_Sep_07_1438,joplin1,2021.2.3,59.93522488489446,
,1 0 1 1 1 1 1 1 1 0,8,categoryA,f,genfile1.csv,0,,,,,,,,,0,0,0,0,0,19,19,49,,,,,,,,,,,,,,,,,,,,,,,,j,0,0.5439623749989551,,,,,,,,,,,,,,,,,,888,001,2021_Sep_07_1438,joplin1,2021.2.3,59.93522488489446,
,0 1 0 0 0 0 0 0 1 0,2,categoryB,j,genfile1.csv,1,,,,,,,,,0,0,0,0,0,20,20,3,,,,,,,,,,,,,,,,,,,,,,,,j,1,1.0962919170015084,,,,,,,,,,,,,,,,,,888,001,2021_Sep_07_1438,joplin1,2021.2.3,59.93522488489446,
,1 1 0 1 0 0 1 0 1 1,6,categoryA,f,genfile1.csv,1,,,,,,,,,0,0,0,0,0,21,21,11,,,,,,,,,,,,,,,,,,,,,,,,j,0,1.298966999998811,,,,,,,,,,,,,,,,,,888,001,2021_Sep_07_1438,joplin1,2021.2.3,59.93522488489446,
,1 1 1 1 1 1 1 0 1 1,9,categoryA,f,genfile1.csv,0,,,,,,,,,0,0,0,0,0,22,22,54,,,,,,,,,,,,,,,,,,,,,,,,f,1,0.5241686249974009,,,,,,,,,,,,,,,,,,888,001,2021_Sep_07_1438,joplin1,2021.2.3,59.93522488489446,
,1 0 0 0 0 0 1 0 0 0,2,categoryB,j,genfile1.csv,0,,,,,,,,,0,0,0,0,0,23,23,23,,,,,,,,,,,,,,,,,,,,,,,,j,1,0.9717248749984719,,,,,,,,,,,,,,,,,,888,001,2021_Sep_07_1438,joplin1,2021.2.3,59.93522488489446,
,0 1 1 1 1 0 0 0 1 1,6,categoryA,f,genfile1.csv,0,,,,,,,,,0,0,0,0,0,24,24,37,,,,,,,,,,,,,,,,,,,,,,,,f,1,0.9781549170002108,,,,,,,,,,,,,,,,,,888,001,2021_Sep_07_1438,joplin1,2021.2.3,59.93522488489446,
,1 0 0 0 0 0 0 0 0 0,1,categoryB,j,genfile1.csv,0,,,,,,,,,0,0,0,0,0,25,25,19,,,,,,,,,,,,,,,,,,,,,,,,f,0,1.4707495830007247,,,,,,,,,,,,,,,,,,888,001,2021_Sep_07_1438,joplin1,2021.2.3,59.93522488489446,
,1 1 0 1 1 1 1 0 1 1,8,categoryA,f,genfile1.csv,1,,,,,,,,,0,0,0,0,0,26,26,14,,,,,,,,,,,,,,,,,,,,,,,,j,0,1.4904581670016341,,,,,,,,,,,,,,,,,,888,001,2021_Sep_07_1438,joplin1,2021.2.3,59.93522488489446,
,1 1 0 1 0 1 0 0 0 0,4,categoryB,j,genfile1.csv,0,,,,,,,,,0,0,0,0,0,27,27,33,,,,,,,,,,,,,,,,,,,,,,,,f,0,1.7142831669989391,,,,,,,,,,,,,,,,,,888,001,2021_Sep_07_1438,joplin1,2021.2.3,59.93522488489446,
,0 0 1 1 0 0 0 0 0 0,2,categoryB,j,genfile1.csv,0,,,,,,,,,0,0,0,0,0,28,28,24,,,,,,,,,,,,,,,,,,,,,,,,f,0,1.7304699169981177,,,,,,,,,,,,,,,,,,888,001,2021_Sep_07_1438,joplin1,2021.2.3,59.93522488489446,
,0 0 1 1 0 1 0 1 1 1,6,categoryA,f,genfile1.csv,0,,,,,,,,,0,0,0,0,0,29,29,40,,,,,,,,,,,,,,,,,,,,,,,,j,0,1.3615708329998597,,,,,,,,,,,,,,,,,,888,001,2021_Sep_07_1438,joplin1,2021.2.3,59.93522488489446,
,0 1 1 0 0 0 0 1 0 0,3,categoryB,j,genfile1.csv,0,,,,,,,,,0,0,0,0,0,30,30,28,,,,,,,,,,,,,,,,,,,,,,,,f,0,1.4291473750017758,,,,,,,,,,,,,,,,,,888,001,2021_Sep_07_1438,joplin1,2021.2.3,59.93522488489446,
,0 0 0 1 1 1 0 1 0 0,4,categoryB,j,genfile1.csv,0,,,,,,,,,0,0,0,0,0,31,31,34,,,,,,,,,,,,,,,,,,,,,,,,j,1,1.5039100000030885,,,,,,,,,,,,,,,,,,888,001,2021_Sep_07_1438,joplin1,2021.2.3,59.93522488489446,
,1 1 1 1 1 1 1 1 1 0,9,categoryA,f,genfile1.csv,0,,,,,,,,,0,0,0,0,0,32,32,52,,,,,,,,,,,,,,,,,,,,,,,,f,1,1.4546497910014295,,,,,,,,,,,,,,,,,,888,001,2021_Sep_07_1438,joplin1,2021.2.3,59.93522488489446,
,0 0 1 0 0 0 0 1 0 0,2,categoryB,j,genfile1.csv,1,,,,,,,,,0,0,0,0,0,33,33,7,,,,,,,,,,,,,,,,,,,,,,,,j,1,1.4740150419966085,,,,,,,,,,,,,,,,,,888,001,2021_Sep_07_1438,joplin1,2021.2.3,59.93522488489446,
,1 0 0 1 0 1 1 0 1 1,6,categoryA,f,genfile1.csv,0,,,,,,,,,0,0,0,0,0,34,34,39,,,,,,,,,,,,,,,,,,,,,,,,f,1,1.3447324590015342,,,,,,,,,,,,,,,,,,888,001,2021_Sep_07_1438,joplin1,2021.2.3,59.93522488489446,
,0 0 0 1 0 1 0 0 0 0,2,categoryB,j,genfile1.csv,0,,,,,,,,,0,0,0,0,0,35,35,25,,,,,,,,,,,,,,,,,,,,,,,,j,1,1.1658080410015828,,,,,,,,,,,,,,,,,,888,001,2021_Sep_07_1438,joplin1,2021.2.3,59.93522488489446,
,0 0 0 0 1 0 0 0 0 0,1,categoryB,j,genfile1.csv,0,,,,,,,,,0,0,0,0,0,36,36,17,,,,,,,,,,,,,,,,,,,,,,,,f,0,0.8269797079992713,,,,,,,,,,,,,,,,,,888,001,2021_Sep_07_1438,joplin1,2021.2.3,59.93522488489446,
,1 1 1 1 1 1 1 1 0 0,8,categoryA,f,genfile1.csv,0,,,,,,,,,0,0,0,0,0,37,37,48,,,,,,,,,,,,,,,,,,,,,,,,f,1,1.2470435830000497,,,,,,,,,,,,,,,,,,888,001,2021_Sep_07_1438,joplin1,2021.2.3,59.93522488489446,
,1 0 1 1 0 1 1 0 1 1,7,categoryA,f,genfile1.csv,0,,,,,,,,,0,0,0,0,0,38,38,41,,,,,,,,,,,,,,,,,,,,,,,,j,0,0.7939697499969043,,,,,,,,,,,,,,,,,,888,001,2021_Sep_07_1438,joplin1,2021.2.3,59.93522488489446,
,0 1 0 0 0 0 0 0 0 0,1,categoryB,j,genfile1.csv,0,,,,,,,,,0,0,0,0,0,39,39,16,,,,,,,,,,,,,,,,,,,,,,,,j,1,1.1422323750011856,,,,,,,,,,,,,,,,,,888,001,2021_Sep_07_1438,joplin1,2021.2.3,59.93522488489446,
,1 1 0 0 0 0 0 0 1 1,4,categoryB,j,genfile1.csv,1,,,,,,,,,0,0,0,0,0,40,40,8,,,,,,,,,,,,,,,,,,,,,,,,f,0,1.415054750003037,,,,,,,,,,,,,,,,,,888,001,2021_Sep_07_1438,joplin1,2021.2.3,59.93522488489446,
,1 0 1 1 1 1 0 1 1 0,7,categoryA,f,genfile1.csv,0,,,,,,,,,0,0,0,0,0,41,41,42,,,,,,,,,,,,,,,,,,,,,,,,j,0,1.9144531250021828,,,,,,,,,,,,,,,,,,888,001,2021_Sep_07_1438,joplin1,2021.2.3,59.93522488489446,
,1 1 1 1 0 1 1 1 1 0,8,categoryA,f,genfile1.csv,0,,,,,,,,,0,0,0,0,0,42,42,50,,,,,,,,,,,,,,,,,,,,,,,,j,0,1.5268852090011933,,,,,,,,,,,,,,,,,,888,001,2021_Sep_07_1438,joplin1,2021.2.3,59.93522488489446,
,1 1 1 1 0 1 0 0 1 1,7,categoryA,f,genfile1.csv,0,,,,,,,,,0,0,0,0,0,43,43,44,,,,,,,,,,,,,,,,,,,,,,,,f,1,1.5821063330004108,,,,,,,,,,,,,,,,,,888,001,2021_Sep_07_1438,joplin1,2021.2.3,59.93522488489446,
,0 0 1 1 1 1 1 1 1 1,8,categoryA,f,genfile1.csv,0,,,,,,,,,0,0,0,0,0,44,44,46,,,,,,,,,,,,,,,,,,,,,,,,f,1,2.027018582997698,,,,,,,,,,,,,,,,,,888,001,2021_Sep_07_1438,joplin1,2021.2.3,59.93522488489446,
,1 0 0 1 0 1 0 0 0 0,3,categoryB,j,genfile1.csv,0,,,,,,,,,0,0,0,0,0,45,45,27,,,,,,,,,,,,,,,,,,,,,,,,f,0,1.8139149169983284,,,,,,,,,,,,,,,,,,888,001,2021_Sep_07_1438,joplin1,2021.2.3,59.93522488489446,
,1 0 0 1 1 1 1 1 1 0,7,categoryA,f,genfile1.csv,0,,,,,,,,,0,0,0,0,0,46,46,45,,,,,,,,,,,,,,,,,,,,,,,,j,0,0.8146559999986493,,,,,,,,,,,,,,,,,,888,001,2021_Sep_07_1438,joplin1,2021.2.3,59.93522488489446,
,1 0 1 1 1 0 0 0 0 0,4,categoryB,j,genfile1.csv,0,,,,,,,,,0,0,0,0,0,47,47,32,,,,,,,,,,,,,,,,,,,,,,,,f,0,1.0576308329982567,,,,,,,,,,,,,,,,,,888,001,2021_Sep_07_1438,joplin1,2021.2.3,59.93522488489446,
,1 1 1 0 1 0 1 1 1 0,7,categoryA,f,genfile1.csv,0,,,,,,,,,0,0,0,0,0,48,48,43,,,,,,,,,,,,,,,,,,,,,,,,j,0,1.025411875001737,,,,,,,,,,,,,,,,,,888,001,2021_Sep_07_1438,joplin1,2021.2.3,59.93522488489446,
,0 1 1 1 1 1 1 1 1 1,9,categoryA,f,genfile1.csv,0,,,,,,,,,0,0,0,0,0,49,49,53,,,,,,,,,,,,,,,,,,,,,,,,j,0,1.093447000002925,,,,,,,,,,,,,,,,,,888,001,2021_Sep_07_1438,joplin1,2021.2.3,59.93522488489446,
,0 0 0 1 0 0 1 0 0 0,2,categoryB,j,genfile1.csv,1,,,,,,,,,0,0,0,0,0,50,50,6,,,,,,,,,,,,,,,,,,,,,,,,f,0,1.3680896250007208,,,,,,,,,,,,,,,,,,888,001,2021_Sep_07_1438,joplin1,2021.2.3,59.93522488489446,
,0 1 1 1 0 0 0 0 0 0,3,categoryB,j,genfile1.csv,0,,,,,,,,,0,0,0,0,0,51,51,30,,,,,,,,,,,,,,,,,,,,,,,,j,1,0.4933136670006206,,,,,,,,,,,,,,,,,,888,001,2021_Sep_07_1438,joplin1,2021.2.3,59.93522488489446,
,0 0 0 0 0 0 1 1 0 0,2,categoryB,j,genfile1.csv,0,,,,,,,,,0,0,0,0,0,52,52,22,,,,,,,,,,,,,,,,,,,,,,,,f,0,0.5734414170001401,,,,,,,,,,,,,,,,,,888,001,2021_Sep_07_1438,joplin1,2021.2.3,59.93522488489446,
,0 1 0 0 1 0 0 0 0 1,3,categoryB,j,genfile1.csv,0,,,,,,,,,0,0,0,0,0,53,53,29,,,,,,,,,,,,,,,,,,,,,,,,f,0,0.514823665998847,,,,,,,,,,,,,,,,,,888,001,2021_Sep_07_1438,joplin1,2021.2.3,59.93522488489446,
,0 0 0 0 0 0 0 0 0 0,0,categoryB,j,genfile1.csv,0,,,,,,,,,0,0,0,0,0,54,54,0,,,,,,,,,,,,,,,,,,,,,,,,j,1,0.17871566699977848,,,,,,,,,,,,,,,,,,888,001,2021_Sep_07_1438,joplin1,2021.2.3,59.93522488489446,
,0 0 1 0 0 0 1 1 1 0,4,categoryB,j,genfile1.csv,0,,,,,,,,,0,0,0,0,0,55,55,35,,,,,,,,,,,,,,,,,,,,,,,,j,1,0.568607167002483,,,,,,,,,,,,,,,,,,888,001,2021_Sep_07_1438,joplin1,2021.2.3,59.93522488489446,
,,,,,genfile1.csv,,,,,,,,,,0,0,0,0,,,,,,,,,,,,,,,,,,space,29.782940417000646,,,,,,,,,,,,,,,,,,,,,,,,,,,,,888,001,2021_Sep_07_1438,joplin1,2021.2.3,59.93522488489446,
,1 1 0 0 0 0 0 0 1 1,4,categoryB,j,genfile2.csv,1,,,,,,,,,0,1,1,1,0,0,0,8,,,,,,,,,,,,,,,,,,,,,,,,f,0,0.837163291998877,,,,,,,,,,,,,,,,,,888,001,2021_Sep_07_1438,joplin1,2021.2.3,59.93522488489446,
,0 0 0 0 0 0 1 0 0 0,1,categoryB,j,genfile2.csv,0,,,,,,,,,0,1,1,1,0,1,1,19,,,,,,,,,,,,,,,,,,,,,,,,j,1,1.1818606670021836,,,,,,,,,,,,,,,,,,888,001,2021_Sep_07_1438,joplin1,2021.2.3,59.93522488489446,
,1 0 1 1 1 0 1 0 1 0,6,categoryA,f,genfile2.csv,0,,,,,,,,,0,1,1,1,0,2,2,36,,,,,,,,,,,,,,,,,,,,,,,,f,1,1.490035375001753,,,,,,,,,,,,,,,,,,888,001,2021_Sep_07_1438,joplin1,2021.2.3,59.93522488489446,
,0 1 1 0 1 0 1 1 1 1,7,categoryA,f,genfile2.csv,0,,,,,,,,,0,1,1,1,0,3,3,41,,,,,,,,,,,,,,,,,,,,,,,,j,0,1.386542082997039,,,,,,,,,,,,,,,,,,888,001,2021_Sep_07_1438,joplin1,2021.2.3,59.93522488489446,
,0 0 1 1 1 0 1 1 1 1,7,categoryA,f,genfile2.csv,0,,,,,,,,,0,1,1,1,0,4,4,44,,,,,,,,,,,,,,,,,,,,,,,,f,1,2.038664374998916,,,,,,,,,,,,,,,,,,888,001,2021_Sep_07_1438,joplin1,2021.2.3,59.93522488489446,
,0 1 0 1 1 1 1 0 1 1,7,categoryA,f,genfile2.csv,0,,,,,,,,,0,1,1,1,0,5,5,43,,,,,,,,,,,,,,,,,,,,,,,,f,1,1.504471750002267,,,,,,,,,,,,,,,,,,888,001,2021_Sep_07_1438,joplin1,2021.2.3,59.93522488489446,
,1 1 1 1 0 1 1 1 0 0,7,categoryA,f,genfile2.csv,0,,,,,,,,,0,1,1,1,0,6,6,45,,,,,,,,,,,,,,,,,,,,,,,,j,0,0.8789560830009577,,,,,,,,,,,,,,,,,,888,001,2021_Sep_07_1438,joplin1,2021.2.3,59.93522488489446,
,0 1 0 1 1 0 0 1 0 0,4,categoryB,j,genfile2.csv,0,,,,,,,,,0,1,1,1,0,7,7,31,,,,,,,,,,,,,,,,,,,,,,,,f,0,1.0393078749984852,,,,,,,,,,,,,,,,,,888,001,2021_Sep_07_1438,joplin1,2021.2.3,59.93522488489446,
,0 1 1 0 0 0 0 0 0 0,2,categoryB,j,genfile2.csv,0,,,,,,,,,0,1,1,1,0,8,8,21,,,,,,,,,,,,,,,,,,,,,,,,f,0,1.6819075829989742,,,,,,,,,,,,,,,,,,888,001,2021_Sep_07_1438,joplin1,2021.2.3,59.93522488489446,
,0 0 0 1 0 0 0 0 0 0,1,categoryB,j,genfile2.csv,0,,,,,,,,,0,1,1,1,0,9,9,18,,,,,,,,,,,,,,,,,,,,,,,,j,1,1.675498874999903,,,,,,,,,,,,,,,,,,888,001,2021_Sep_07_1438,joplin1,2021.2.3,59.93522488489446,
,0 1 0 1 0 0 0 1 0 1,4,categoryB,j,genfile2.csv,0,,,,,,,,,0,1,1,1,0,10,10,34,,,,,,,,,,,,,,,,,,,,,,,,j,1,1.4291452079996816,,,,,,,,,,,,,,,,,,888,001,2021_Sep_07_1438,joplin1,2021.2.3,59.93522488489446,
,0 1 0 1 0 0 0 0 0 0,2,categoryB,j,genfile2.csv,0,,,,,,,,,0,1,1,1,0,11,11,25,,,,,,,,,,,,,,,,,,,,,,,,f,0,1.1606973330017354,,,,,,,,,,,,,,,,,,888,001,2021_Sep_07_1438,joplin1,2021.2.3,59.93522488489446,
,0 0 0 0 0 1 0 0 0 0,1,categoryB,j,genfile2.csv,0,,,,,,,,,0,1,1,1,0,12,12,17,,,,,,,,,,,,,,,,,,,,,,,,f,0,1.4862573329992301,,,,,,,,,,,,,,,,,,888,001,2021_Sep_07_1438,joplin1,2021.2.3,59.93522488489446,
,1 1 1 1 1 0 1 1 1 1,9,categoryA,f,genfile2.csv,0,,,,,,,,,0,1,1,1,0,13,13,54,,,,,,,,,,,,,,,,,,,,,,,,f,1,1.82333020799706,,,,,,,,,,,,,,,,,,888,001,2021_Sep_07_1438,joplin1,2021.2.3,59.93522488489446,
,0 0 1 0 0 0 0 0 0 0,1,categoryB,j,genfile2.csv,0,,,,,,,,,0,1,1,1,0,14,14,20,,,,,,,,,,,,,,,,,,,,,,,,j,1,0.9866733329981798,,,,,,,,,,,,,,,,,,888,001,2021_Sep_07_1438,joplin1,2021.2.3,59.93522488489446,
,0 0 1 0 0 0 0 0 1 1,3,categoryB,j,genfile2.csv,0,,,,,,,,,0,1,1,1,0,15,15,29,,,,,,,,,,,,,,,,,,,,,,,,f,0,1.8541526670014719,,,,,,,,,,,,,,,,,,888,001,2021_Sep_07_1438,joplin1,2021.2.3,59.93522488489446,
,0 1 1 1 1 1 1 1 0 1,8,categoryA,f,genfile2.csv,0,,,,,,,,,0,1,1,1,0,16,16,49,,,,,,,,,,,,,,,,,,,,,,,,j,0,0.573736333000852,,,,,,,,,,,,,,,,,,888,001,2021_Sep_07_1438,joplin1,2021.2.3,59.93522488489446,
,1 1 0 1 1 1 1 0 1 1,8,categoryA,f,genfile2.csv,1,,,,,,,,,0,1,1,1,0,17,17,14,,,,,,,,,,,,,,,,,,,,,,,,f,1,1.7079702080009156,,,,,,,,,,,,,,,,,,888,001,2021_Sep_07_1438,joplin1,2021.2.3,59.93522488489446,
,1 0 1 0 0 1 0 1 1 1,6,categoryA,f,genfile2.csv,0,,,,,,,,,0,1,1,1,0,18,18,39,,,,,,,,,,,,,,,,,,,,,,,,f,1,1.8519428330000665,,,,,,,,,,,,,,,,,,888,001,2021_Sep_07_1438,joplin1,2021.2.3,59.93522488489446,
,0 1 1 1 1 1 1 1 1 0,8,categoryA,f,genfile2.csv,1,,,,,,,,,0,1,1,1,0,19,19,9,,,,,,,,,,,,,,,,,,,,,,,,j,0,1.1284174579996034,,,,,,,,,,,,,,,,,,888,001,2021_Sep_07_1438,joplin1,2021.2.3,59.93522488489446,
,0 0 1 1 1 1 1 1 0 0,6,categoryA,f,genfile2.csv,1,,,,,,,,,0,1,1,1,0,20,20,15,,,,,,,,,,,,,,,,,,,,,,,,j,0,0.8332557919966348,,,,,,,,,,,,,,,,,,888,001,2021_Sep_07_1438,joplin1,2021.2.3,59.93522488489446,
,0 1 0 0 0 0 0 0 1 0,2,categoryB,j,genfile2.csv,1,,,,,,,,,0,1,1,1,0,21,21,3,,,,,,,,,,,,,,,,,,,,,,,,f,0,0.8466538339998806,,,,,,,,,,,,,,,,,,888,001,2021_Sep_07_1438,joplin1,2021.2.3,59.93522488489446,
,1 1 1 0 1 0 0 1 0 1,6,categoryA,f,genfile2.csv,0,,,,,,,,,0,1,1,1,0,22,22,38,,,,,,,,,,,,,,,,,,,,,,,,f,1,1.3276275419993908,,,,,,,,,,,,,,,,,,888,001,2021_Sep_07_1438,joplin1,2021.2.3,59.93522488489446,
,1 1 1 1 0 1 1 0 1 1,8,categoryA,f,genfile2.csv,0,,,,,,,,,0,1,1,1,0,23,23,50,,,,,,,,,,,,,,,,,,,,,,,,j,0,0.5993714169999294,,,,,,,,,,,,,,,,,,888,001,2021_Sep_07_1438,joplin1,2021.2.3,59.93522488489446,
,0 0 1 0 0 0 0 1 0 0,2,categoryB,j,genfile2.csv,1,,,,,,,,,0,1,1,1,0,24,24,7,,,,,,,,,,,,,,,,,,,,,,,,f,0,1.2059439580007165,,,,,,,,,,,,,,,,,,888,001,2021_Sep_07_1438,joplin1,2021.2.3,59.93522488489446,
,0 1 0 0 0 0 0 1 1 0,3,categoryB,j,genfile2.csv,0,,,,,,,,,0,1,1,1,0,25,25,28,,,,,,,,,,,,,,,,,,,,,,,,j,1,0.8414498750025814,,,,,,,,,,,,,,,,,,888,001,2021_Sep_07_1438,joplin1,2021.2.3,59.93522488489446,
,1 0 0 0 0 1 1 0 1 0,4,categoryB,j,genfile2.csv,0,,,,,,,,,0,1,1,1,0,26,26,33,,,,,,,,,,,,,,,,,,,,,,,,j,1,1.652059415999247,,,,,,,,,,,,,,,,,,888,001,2021_Sep_07_1438,joplin1,2021.2.3,59.93522488489446,
,1 0 1 1 1 1 1 1 1 1,9,categoryA,f,genfile2.csv,0,,,,,,,,,0,1,1,1,0,27,27,55,,,,,,,,,,,,,,,,,,,,,,,,None,0,,,,,,,,,,,,,,,,,,,888,001,2021_Sep_07_1438,joplin1,2021.2.3,59.93522488489446,
,1 1 1 0 1 0 1 1 1 1,8,categoryA,f,genfile2.csv,0,,,,,,,,,0,1,1,1,0,28,28,47,,,,,,,,,,,,,,,,,,,,,,,,j,0,0.0019130830005451571,,,,,,,,,,,,,,,,,,888,001,2021_Sep_07_1438,joplin1,2021.2.3,59.93522488489446,
,1 1 0 1 0 0 1 0 1 1,6,categoryA,f,genfile2.csv,1,,,,,,,,,0,1,1,1,0,29,29,11,,,,,,,,,,,,,,,,,,,,,,,,f,1,0.03101037499800441,,,,,,,,,,,,,,,,,,888,001,2021_Sep_07_1438,joplin1,2021.2.3,59.93522488489446,
,1 1 1 0 1 1 1 1 1 1,9,categoryA,f,genfile2.csv,0,,,,,,,,,0,1,1,1,0,30,30,51,,,,,,,,,,,,,,,,,,,,,,,,j,0,0.0582726669999829,,,,,,,,,,,,,,,,,,888,001,2021_Sep_07_1438,joplin1,2021.2.3,59.93522488489446,
,1 1 0 1 1 1 0 1 1 1,8,categoryA,f,genfile2.csv,0,,,,,,,,,0,1,1,1,0,31,31,46,,,,,,,,,,,,,,,,,,,,,,,,f,1,0.28544712499933667,,,,,,,,,,,,,,,,,,888,001,2021_Sep_07_1438,joplin1,2021.2.3,59.93522488489446,
,1 0 0 1 0 0 0 0 0 0,2,categoryB,j,genfile2.csv,0,,,,,,,,,0,1,1,1,0,32,32,23,,,,,,,,,,,,,,,,,,,,,,,,j,1,1.3164857500014477,,,,,,,,,,,,,,,,,,888,001,2021_Sep_07_1438,joplin1,2021.2.3,59.93522488489446,
,1 1 1 1 1 1 1 1 1 1,10,categoryA,f,genfile2.csv,0,,,,,,,,,0,1,1,1,0,33,33,1,,,,,,,,,,,,,,,,,,,,,,,,j,0,1.1017675830007647,,,,,,,,,,,,,,,,,,888,001,2021_Sep_07_1438,joplin1,2021.2.3,59.93522488489446,
,0 1 0 1 0 1 1 0 0 0,4,categoryB,j,genfile2.csv,0,,,,,,,,,0,1,1,1,0,34,34,35,,,,,,,,,,,,,,,,,,,,,,,,j,1,1.009870416000922,,,,,,,,,,,,,,,,,,888,001,2021_Sep_07_1438,joplin1,2021.2.3,59.93522488489446,
,1 1 1 1 0 1 1 1 0 1,8,categoryA,f,genfile2.csv,0,,,,,,,,,0,1,1,1,0,35,35,48,,,,,,,,,,,,,,,,,,,,,,,,f,1,0.6306619590031914,,,,,,,,,,,,,,,,,,888,001,2021_Sep_07_1438,joplin1,2021.2.3,59.93522488489446,
,0 0 0 0 0 1 0 0 1 0,2,categoryB,j,genfile2.csv,0,,,,,,,,,0,1,1,1,0,36,36,22,,,,,,,,,,,,,,,,,,,,,,,,f,0,1.1311167080020823,,,,,,,,,,,,,,,,,,888,001,2021_Sep_07_1438,joplin1,2021.2.3,59.93522488489446,
,1 0 1 1 1 1 1 1 0 1,8,categoryA,f,genfile2.csv,1,,,,,,,,,0,1,1,1,0,37,37,10,,,,,,,,,,,,,,,,,,,,,,,,j,0,1.1630352080028388,,,,,,,,,,,,,,,,,,888,001,2021_Sep_07_1438,joplin1,2021.2.3,59.93522488489446,
,1 1 1 0 1 1 0 1 1 1,8,categoryA,f,genfile2.csv,1,,,,,,,,,0,1,1,1,0,38,38,13,,,,,,,,,,,,,,,,,,,,,,,,f,1,1.1464152919979824,,,,,,,,,,,,,,,,,,888,001,2021_Sep_07_1438,joplin1,2021.2.3,59.93522488489446,
,1 1 1 0 0 1 1 0 1 1,7,categoryA,f,genfile2.csv,0,,,,,,,,,0,1,1,1,0,39,39,42,,,,,,,,,,,,,,,,,,,,,,,,j,0,1.0082312089980405,,,,,,,,,,,,,,,,,,888,001,2021_Sep_07_1438,joplin1,2021.2.3,59.93522488489446,
,1 1 1 0 0 0 0 1 1 1,6,categoryA,f,genfile2.csv,1,,,,,,,,,0,1,1,1,0,40,40,12,,,,,,,,,,,,,,,,,,,,,,,,f,1,1.2304902500000026,,,,,,,,,,,,,,,,,,888,001,2021_Sep_07_1438,joplin1,2021.2.3,59.93522488489446,
,0 0 0 0 0 0 0 0 1 0,1,categoryB,j,genfile2.csv,0,,,,,,,,,0,1,1,1,0,41,41,16,,,,,,,,,,,,,,,,,,,,,,,,j,1,1.138093540997943,,,,,,,,,,,,,,,,,,888,001,2021_Sep_07_1438,joplin1,2021.2.3,59.93522488489446,
,1 1 1 1 1 1 0 1 1 1,9,categoryA,f,genfile2.csv,0,,,,,,,,,0,1,1,1,0,42,42,53,,,,,,,,,,,,,,,,,,,,,,,,f,1,1.5925494999974035,,,,,,,,,,,,,,,,,,888,001,2021_Sep_07_1438,joplin1,2021.2.3,59.93522488489446,
,1 0 0 0 0 0 0 0 0 1,2,categoryB,j,genfile2.csv,1,,,,,,,,,0,1,1,1,0,43,43,2,,,,,,,,,,,,,,,,,,,,,,,,j,1,1.318343458999152,,,,,,,,,,,,,,,,,,888,001,2021_Sep_07_1438,joplin1,2021.2.3,59.93522488489446,
,0 0 0 0 0 0 0 0 0 0,0,categoryB,j,genfile2.csv,0,,,,,,,,,0,1,1,1,0,44,44,0,,,,,,,,,,,,,,,,,,,,,,,,f,0,1.487890584001434,,,,,,,,,,,,,,,,,,888,001,2021_Sep_07_1438,joplin1,2021.2.3,59.93522488489446,
,0 0 0 1 0 0 1 0 0 0,2,categoryB,j,genfile2.csv,1,,,,,,,,,0,1,1,1,0,45,45,6,,,,,,,,,,,,,,,,,,,,,,,,f,0,1.9866239170005429,,,,,,,,,,,,,,,,,,888,001,2021_Sep_07_1438,joplin1,2021.2.3,59.93522488489446,
,1 1 0 0 0 1 0 0 0 0,3,categoryB,j,genfile2.csv,0,,,,,,,,,0,1,1,1,0,46,46,30,,,,,,,,,,,,,,,,,,,,,,,,j,1,1.3588266250008019,,,,,,,,,,,,,,,,,,888,001,2021_Sep_07_1438,joplin1,2021.2.3,59.93522488489446,
,1 1 1 1 1 1 1 1 0 1,9,categoryA,f,genfile2.csv,0,,,,,,,,,0,1,1,1,0,47,47,52,,,,,,,,,,,,,,,,,,,,,,,,j,0,1.364599749998888,,,,,,,,,,,,,,,,,,888,001,2021_Sep_07_1438,joplin1,2021.2.3,59.93522488489446,
,0 0 1 0 1 1 0 1 0 0,4,categoryB,j,genfile2.csv,1,,,,,,,,,0,1,1,1,0,48,48,4,,,,,,,,,,,,,,,,,,,,,,,,f,0,1.6697605829976965,,,,,,,,,,,,,,,,,,888,001,2021_Sep_07_1438,joplin1,2021.2.3,59.93522488489446,
,1 1 0 0 1 1 0 1 1 0,6,categoryA,f,genfile2.csv,0,,,,,,,,,0,1,1,1,0,49,49,40,,,,,,,,,,,,,,,,,,,,,,,,f,1,1.2708197079991805,,,,,,,,,,,,,,,,,,888,001,2021_Sep_07_1438,joplin1,2021.2.3,59.93522488489446,
,1 0 1 1 0 1 0 0 0 0,4,categoryB,j,genfile2.csv,0,,,,,,,,,0,1,1,1,0,50,50,32,,,,,,,,,,,,,,,,,,,,,,,,j,1,0.7973850829985167,,,,,,,,,,,,,,,,,,888,001,2021_Sep_07_1438,joplin1,2021.2.3,59.93522488489446,
,0 0 0 0 0 1 0 0 0 1,2,categoryB,j,genfile2.csv,0,,,,,,,,,0,1,1,1,0,51,51,24,,,,,,,,,,,,,,,,,,,,,,,,j,1,1.4898348749993602,,,,,,,,,,,,,,,,,,888,001,2021_Sep_07_1438,joplin1,2021.2.3,59.93522488489446,
,0 0 0 1 0 1 0 1 0 0,3,categoryB,j,genfile2.csv,0,,,,,,,,,0,1,1,1,0,52,52,27,,,,,,,,,,,,,,,,,,,,,,,,j,1,1.4817867499987187,,,,,,,,,,,,,,,,,,888,001,2021_Sep_07_1438,joplin1,2021.2.3,59.93522488489446,
,0 0 0 1 1 1 1 0 0 0,4,categoryB,j,genfile2.csv,1,,,,,,,,,0,1,1,1,0,53,53,5,,,,,,,,,,,,,,,,,,,,,,,,f,0,1.6373621659986384,,,,,,,,,,,,,,,,,,888,001,2021_Sep_07_1438,joplin1,2021.2.3,59.93522488489446,
,0 1 1 0 0 1 1 1 1 0,6,categoryA,f,genfile2.csv,0,,,,,,,,,0,1,1,1,0,54,54,37,,,,,,,,,,,,,,,,,,,,,,,,j,0,1.2553519590001088,,,,,,,,,,,,,,,,,,888,001,2021_Sep_07_1438,joplin1,2021.2.3,59.93522488489446,
,0 0 0 1 0 1 1 0 0 0,3,categoryB,j,genfile2.csv,0,,,,,,,,,0,1,1,1,0,55,55,26,,,,,,,,,,,,,,,,,,,,,,,,f,0,1.6797117499991145,,,,,,,,,,,,,,,,,,888,001,2021_Sep_07_1438,joplin1,2021.2.3,59.93522488489446,
,,,,,genfile2.csv,,,,,,,,,,0,1,1,1,,,,,,,,,,,,,,,,,,space,20.875020625000616,,,,,,,,,,,,,,,,,,,,,,,,,,,,,888,001,2021_Sep_07_1438,joplin1,2021.2.3,59.93522488489446,
,,,,,,,,,,,,,,,,,,,,,,,,,,,,,,,,,,,,,,,,,,,,,,,,,None,,,,,,,,,,,,,,,,,888,001,2021_Sep_07_1438,joplin1,2021.2.3,59.93522488489446,
,,,,,,,,,,,,,,,,,,,,,,,,,,,,,,,,,,,,,,,,,,,,,,,,,,None,,,,,,,,,,,,,,,,888,001,2021_Sep_07_1438,joplin1,2021.2.3,59.93522488489446,
,,,,,,,,,,,,,,,,,,,,,,,,,,,,,,,,,,,,,,,,,,,,,,,,,,,0.7,radio,0.3,Are you Hispanic/Latino?,0,None,None,None,None,,,,,,,888,001,2021_Sep_07_1438,joplin1,2021.2.3,59.93522488489446,
,,,,,,,,,,,,,,,,,,,,,,,,,,,,,,,,,,,,,,,,,,,,,,,,,,,0.7,radio,0.3,Are you an American Indian or Alaska Native?,1,None,None,None,None,,,,,,,888,001,2021_Sep_07_1438,joplin1,2021.2.3,59.93522488489446,
,,,,,,,,,,,,,,,,,,,,,,,,,,,,,,,,,,,,,,,,,,,,,,,,,,,0.7,radio,0.3,Are you Asian?,2,None,None,None,None,,,,,,,888,001,2021_Sep_07_1438,joplin1,2021.2.3,59.93522488489446,
,,,,,,,,,,,,,,,,,,,,,,,,,,,,,,,,,,,,,,,,,,,,,,,,,,,0.7,radio,0.3,Are you Black or African American?,3,None,None,None,None,,,,,,,888,001,2021_Sep_07_1438,joplin1,2021.2.3,59.93522488489446,
,,,,,,,,,,,,,,,,,,,,,,,,,,,,,,,,,,,,,,,,,,,,,,,,,,,0.7,radio,0.3,Are you a Native Hawaiian or other Pacific Islander?,4,None,None,None,None,,,,,,,888,001,2021_Sep_07_1438,joplin1,2021.2.3,59.93522488489446,
,,,,,,,,,,,,,,,,,,,,,,,,,,,,,,,,,,,,,,,,,,,,,,,,,,,0.7,radio,0.3,Are you White?,5,None,None,None,None,,,,,,,888,001,2021_Sep_07_1438,joplin1,2021.2.3,59.93522488489446,
,,,,,,,,,,,,,,,,,,,,,,,,,,,,,,,,,,,,,,,,,,,,,,,,,,,0.85,radio,0.3,"Do you have any history of neurological issues such as stroke, head injury or a neurodegenerative disorder?",6,None,None,None,None,,,,,,,888,001,2021_Sep_07_1438,joplin1,2021.2.3,59.93522488489446,
,,,,,,,,,,,,,,,,,,,,,,,,,,,,,,,,,,,,,,,,,,,,,,,,,,,,,,,,,,,,None,,,,,,888,001,2021_Sep_07_1438,joplin1,2021.2.3,59.93522488489446,
,,,,,,,,,,,,,,,,,,,,,,,,,,,,,,,,,,,,,,,,,,,,,,,,,,,,,,,,,,,,,None,,,,,888,001,2021_Sep_07_1438,joplin1,2021.2.3,59.93522488489446,
,,,,,,,,,,,,,,,,,,,,,,,,,,,,,,,,,,,,,,,,,,,,,,,,,,,,,,,,,,,,,,,,None,,888,001,2021_Sep_07_1438,joplin1,2021.2.3,59.93522488489446,
,,,,,,,,,,,,,,,,,,,,,,,,,,,,,,,,,,,,,,,,,,,,,,,,,,,,,,,,,,,,,,,,,,,,,,,,
