train_set,stim_id,sums_feat,category,correct_key,gen_file,train_item,train_runs.thisRepN,train_runs.thisTrialN,train_runs.thisN,train_runs.thisIndex,train_trials.thisRepN,train_trials.thisTrialN,train_trials.thisN,train_trials.thisIndex,test_runs.thisRepN,test_runs.thisTrialN,test_runs.thisN,test_runs.thisIndex,test_trials.thisRepN,test_trials.thisTrialN,test_trials.thisN,test_trials.thisIndex,welcome_key.keys,welcome_key.rt,welcome_key.started,welcome_key.stopped,train_inst1_key.keys,train_inst1_key.rt,train_inst2_key.keys,train_inst2_key.rt,train_begin_key.keys,train_begin_key.rt,train_key.keys,train_key.corr,train_key.rt,break_key.keys,break_key.rt,key_resp.keys,key_resp.rt,test_inst1_key.keys,test_inst1_key.rt,test_inst2_key.keys,test_inst2_key.rt,test_begin_key.keys,test_begin_key.rt,test_key.keys,test_key.corr,test_key.rt,test_end_key.keys,test_end_key.rt,demo_inst1_key.keys,demo_inst1_key.rt,form.questionWidth,form.type,form.respWidth,form.itemText,form.index,form.font,form.markerColor,form.response,form.rt,form_key.keys,form_key.rt,demo_inst2_key.keys,demo_inst2_key.rt,gender_string,age_string,demo4_key.keys,demo4_key.rt,typedWord,participant,session,date,expName,psychopyVersion,frameRate
,,,,,,,,,,,,,,,,,,,,,,,space,64.30342904,37.39362021,None,,,,,,,,,,,,,,,,,,,,,,,,,,,,,,,,,,,,,,,,,,,,,888,2,2021_Sep_10_1053,joplin1,2021.2.3,59.96619406
,,,,,,,,,,,,,,,,,,,,,,,,,,,j,12.43532071,,,,,,,,,,,,,,,,,,,,,,,,,,,,,,,,,,,,,,,,,,,888,2,2021_Sep_10_1053,joplin1,2021.2.3,59.96619406
,,,,,,,,,,,,,,,,,,,,,,,,,,,,,space,8.430768792,,,,,,,,,,,,,,,,,,,,,,,,,,,,,,,,,,,,,,,,,888,2,2021_Sep_10_1053,joplin1,2021.2.3,59.96619406
,,,,,,,,,,,,,,,,,,,,,,,,,,,,,,,space,1.812461,,,,,,,,,,,,,,,,,,,,,,,,,,,,,,,,,,,,,,,888,2,2021_Sep_10_1053,joplin1,2021.2.3,59.96619406
_train_cond.csv,1 0 1 1 1 1 1 1 0 1,8,categoryA,f,,,0,0,0,7,0,0,0,8,,,,,,,,,,,,,,,,,,,j,0,0.953864,,,,,,,,,,,,,,,,,,,,,,,,,,,,,,,,,,,,888,2,2021_Sep_10_1053,joplin1,2021.2.3,59.96619406
_train_cond.csv,0 1 0 0 0 0 0 0 1 0,2,categoryB,j,,,0,0,0,7,0,1,1,1,,,,,,,,,,,,,,,,,,,j,1,0.65904,,,,,,,,,,,,,,,,,,,,,,,,,,,,,,,,,,,,888,2,2021_Sep_10_1053,joplin1,2021.2.3,59.96619406
_train_cond.csv,0 0 1 0 1 1 0 1 0 0,4,categoryB,j,,,0,0,0,7,0,2,2,2,,,,,,,,,,,,,,,,,,,j,1,0.780300875,,,,,,,,,,,,,,,,,,,,,,,,,,,,,,,,,,,,888,2,2021_Sep_10_1053,joplin1,2021.2.3,59.96619406
_train_cond.csv,0 1 1 1 1 1 1 1 1 0,8,categoryA,f,,,0,0,0,7,0,3,3,7,,,,,,,,,,,,,,,,,,,j,0,0.528202666,,,,,,,,,,,,,,,,,,,,,,,,,,,,,,,,,,,,888,2,2021_Sep_10_1053,joplin1,2021.2.3,59.96619406
_train_cond.csv,1 0 0 0 0 0 0 0 0 1,2,categoryB,j,,,0,0,0,7,0,4,4,0,,,,,,,,,,,,,,,,,,,f,0,0.471079291,,,,,,,,,,,,,,,,,,,,,,,,,,,,,,,,,,,,888,2,2021_Sep_10_1053,joplin1,2021.2.3,59.96619406
_train_cond.csv,0 0 0 1 0 0 1 0 0 0,2,categoryB,j,,,0,0,0,7,0,5,5,4,,,,,,,,,,,,,,,,,,,j,1,0.292075791,,,,,,,,,,,,,,,,,,,,,,,,,,,,,,,,,,,,888,2,2021_Sep_10_1053,joplin1,2021.2.3,59.96619406
_train_cond.csv,1 1 0 0 0 0 0 0 1 1,4,categoryB,j,,,0,0,0,7,0,6,6,6,,,,,,,,,,,,,,,,,,,j,1,0.715250583,,,,,,,,,,,,,,,,,,,,,,,,,,,,,,,,,,,,888,2,2021_Sep_10_1053,joplin1,2021.2.3,59.96619406
_train_cond.csv,0 0 1 0 0 0 0 1 0 0,2,categoryB,j,,,0,0,0,7,0,7,7,5,,,,,,,,,,,,,,,,,,,f,0,0.443345083,,,,,,,,,,,,,,,,,,,,,,,,,,,,,,,,,,,,888,2,2021_Sep_10_1053,joplin1,2021.2.3,59.96619406
_train_cond.csv,1 1 1 0 0 0 0 1 1 1,6,categoryA,f,,,0,0,0,7,0,8,8,10,,,,,,,,,,,,,,,,,,,j,0,0.353577041,,,,,,,,,,,,,,,,,,,,,,,,,,,,,,,,,,,,888,2,2021_Sep_10_1053,joplin1,2021.2.3,59.96619406
_train_cond.csv,0 0 0 1 1 1 1 0 0 0,4,categoryB,j,,,0,0,0,7,0,9,9,3,,,,,,,,,,,,,,,,,,,j,1,0.467374875,,,,,,,,,,,,,,,,,,,,,,,,,,,,,,,,,,,,888,2,2021_Sep_10_1053,joplin1,2021.2.3,59.96619406
_train_cond.csv,1 1 1 0 1 1 0 1 1 1,8,categoryA,f,,,0,0,0,7,0,10,10,11,,,,,,,,,,,,,,,,,,,f,1,0.266857,,,,,,,,,,,,,,,,,,,,,,,,,,,,,,,,,,,,888,2,2021_Sep_10_1053,joplin1,2021.2.3,59.96619406
_train_cond.csv,0 0 1 1 1 1 1 1 0 0,6,categoryA,f,,,0,0,0,7,0,11,11,13,,,,,,,,,,,,,,,,,,,f,1,0.283753167,,,,,,,,,,,,,,,,,,,,,,,,,,,,,,,,,,,,888,2,2021_Sep_10_1053,joplin1,2021.2.3,59.96619406
_train_cond.csv,1 1 0 1 0 0 1 0 1 1,6,categoryA,f,,,0,0,0,7,0,12,12,9,,,,,,,,,,,,,,,,,,,j,0,0.234989042,,,,,,,,,,,,,,,,,,,,,,,,,,,,,,,,,,,,888,2,2021_Sep_10_1053,joplin1,2021.2.3,59.96619406
_train_cond.csv,1 1 0 1 1 1 1 0 1 1,8,categoryA,f,,,0,0,0,7,0,13,13,12,,,,,,,,,,,,,,,,,,,f,1,0.311208375,,,,,,,,,,,,,,,,,,,,,,,,,,,,,,,,,,,,888,2,2021_Sep_10_1053,joplin1,2021.2.3,59.96619406
_train_cond.csv,1 1 1 0 0 0 0 1 1 1,6,categoryA,f,,,0,0,0,7,1,0,14,10,,,,,,,,,,,,,,,,,,,f,1,0.619764875,,,,,,,,,,,,,,,,,,,,,,,,,,,,,,,,,,,,888,2,2021_Sep_10_1053,joplin1,2021.2.3,59.96619406
_train_cond.csv,1 1 0 1 1 1 1 0 1 1,8,categoryA,f,,,0,0,0,7,1,1,15,12,,,,,,,,,,,,,,,,,,,f,1,0.303264125,,,,,,,,,,,,,,,,,,,,,,,,,,,,,,,,,,,,888,2,2021_Sep_10_1053,joplin1,2021.2.3,59.96619406
_train_cond.csv,1 1 0 0 0 0 0 0 1 1,4,categoryB,j,,,0,0,0,7,1,2,16,6,,,,,,,,,,,,,,,,,,,j,1,0.237632833,,,,,,,,,,,,,,,,,,,,,,,,,,,,,,,,,,,,888,2,2021_Sep_10_1053,joplin1,2021.2.3,59.96619406
_train_cond.csv,0 0 0 1 1 1 1 0 0 0,4,categoryB,j,,,0,0,0,7,1,3,17,3,,,,,,,,,,,,,,,,,,,f,0,0.462487459,,,,,,,,,,,,,,,,,,,,,,,,,,,,,,,,,,,,888,2,2021_Sep_10_1053,joplin1,2021.2.3,59.96619406
_train_cond.csv,1 0 0 0 0 0 0 0 0 1,2,categoryB,j,,,0,0,0,7,1,4,18,0,,,,,,,,,,,,,,,,,,,j,1,0.262533,,,,,,,,,,,,,,,,,,,,,,,,,,,,,,,,,,,,888,2,2021_Sep_10_1053,joplin1,2021.2.3,59.96619406
_train_cond.csv,0 1 0 0 0 0 0 0 1 0,2,categoryB,j,,,0,0,0,7,1,5,19,1,,,,,,,,,,,,,,,,,,,j,1,0.3214765,,,,,,,,,,,,,,,,,,,,,,,,,,,,,,,,,,,,888,2,2021_Sep_10_1053,joplin1,2021.2.3,59.96619406
_train_cond.csv,0 0 1 0 1 1 0 1 0 0,4,categoryB,j,,,0,0,0,7,1,6,20,2,,,,,,,,,,,,,,,,,,,f,0,0.495154792,,,,,,,,,,,,,,,,,,,,,,,,,,,,,,,,,,,,888,2,2021_Sep_10_1053,joplin1,2021.2.3,59.96619406
_train_cond.csv,1 0 1 1 1 1 1 1 0 1,8,categoryA,f,,,0,0,0,7,1,7,21,8,,,,,,,,,,,,,,,,,,,j,0,0.35530075,,,,,,,,,,,,,,,,,,,,,,,,,,,,,,,,,,,,888,2,2021_Sep_10_1053,joplin1,2021.2.3,59.96619406
_train_cond.csv,1 1 1 0 1 1 0 1 1 1,8,categoryA,f,,,0,0,0,7,1,8,22,11,,,,,,,,,,,,,,,,,,,f,1,0.718635667,,,,,,,,,,,,,,,,,,,,,,,,,,,,,,,,,,,,888,2,2021_Sep_10_1053,joplin1,2021.2.3,59.96619406
_train_cond.csv,0 0 0 1 0 0 1 0 0 0,2,categoryB,j,,,0,0,0,7,1,9,23,4,,,,,,,,,,,,,,,,,,,j,1,0.417747584,,,,,,,,,,,,,,,,,,,,,,,,,,,,,,,,,,,,888,2,2021_Sep_10_1053,joplin1,2021.2.3,59.96619406
_train_cond.csv,0 0 1 1 1 1 1 1 0 0,6,categoryA,f,,,0,0,0,7,1,10,24,13,,,,,,,,,,,,,,,,,,,j,0,0.752228417,,,,,,,,,,,,,,,,,,,,,,,,,,,,,,,,,,,,888,2,2021_Sep_10_1053,joplin1,2021.2.3,59.96619406
_train_cond.csv,0 0 1 0 0 0 0 1 0 0,2,categoryB,j,,,0,0,0,7,1,11,25,5,,,,,,,,,,,,,,,,,,,f,0,0.415634666,,,,,,,,,,,,,,,,,,,,,,,,,,,,,,,,,,,,888,2,2021_Sep_10_1053,joplin1,2021.2.3,59.96619406
_train_cond.csv,0 1 1 1 1 1 1 1 1 0,8,categoryA,f,,,0,0,0,7,1,12,26,7,,,,,,,,,,,,,,,,,,,f,1,1.130202083,,,,,,,,,,,,,,,,,,,,,,,,,,,,,,,,,,,,888,2,2021_Sep_10_1053,joplin1,2021.2.3,59.96619406
_train_cond.csv,1 1 0 1 0 0 1 0 1 1,6,categoryA,f,,,0,0,0,7,1,13,27,9,,,,,,,,,,,,,,,,,,,j,0,0.435408667,,,,,,,,,,,,,,,,,,,,,,,,,,,,,,,,,,,,888,2,2021_Sep_10_1053,joplin1,2021.2.3,59.96619406
_train_cond.csv,0 0 0 1 0 0 1 0 0 0,2,categoryB,j,,,0,0,0,7,2,0,28,4,,,,,,,,,,,,,,,,,,,j,1,0.636651167,,,,,,,,,,,,,,,,,,,,,,,,,,,,,,,,,,,,888,2,2021_Sep_10_1053,joplin1,2021.2.3,59.96619406
_train_cond.csv,0 1 0 0 0 0 0 0 1 0,2,categoryB,j,,,0,0,0,7,2,1,29,1,,,,,,,,,,,,,,,,,,,j,1,0.427616083,,,,,,,,,,,,,,,,,,,,,,,,,,,,,,,,,,,,888,2,2021_Sep_10_1053,joplin1,2021.2.3,59.96619406
_train_cond.csv,1 1 1 0 1 1 0 1 1 1,8,categoryA,f,,,0,0,0,7,2,2,30,11,,,,,,,,,,,,,,,,,,,f,1,0.295377541,,,,,,,,,,,,,,,,,,,,,,,,,,,,,,,,,,,,888,2,2021_Sep_10_1053,joplin1,2021.2.3,59.96619406
_train_cond.csv,1 1 0 1 0 0 1 0 1 1,6,categoryA,f,,,0,0,0,7,2,3,31,9,,,,,,,,,,,,,,,,,,,f,1,0.442446083,,,,,,,,,,,,,,,,,,,,,,,,,,,,,,,,,,,,888,2,2021_Sep_10_1053,joplin1,2021.2.3,59.96619406
_train_cond.csv,0 0 0 1 1 1 1 0 0 0,4,categoryB,j,,,0,0,0,7,2,4,32,3,,,,,,,,,,,,,,,,,,,j,1,0.300853792,,,,,,,,,,,,,,,,,,,,,,,,,,,,,,,,,,,,888,2,2021_Sep_10_1053,joplin1,2021.2.3,59.96619406
_train_cond.csv,0 0 1 1 1 1 1 1 0 0,6,categoryA,f,,,0,0,0,7,2,5,33,13,,,,,,,,,,,,,,,,,,,j,0,0.8661755,,,,,,,,,,,,,,,,,,,,,,,,,,,,,,,,,,,,888,2,2021_Sep_10_1053,joplin1,2021.2.3,59.96619406
_train_cond.csv,1 0 0 0 0 0 0 0 0 1,2,categoryB,j,,,0,0,0,7,2,6,34,0,,,,,,,,,,,,,,,,,,,j,1,0.306388459,,,,,,,,,,,,,,,,,,,,,,,,,,,,,,,,,,,,888,2,2021_Sep_10_1053,joplin1,2021.2.3,59.96619406
_train_cond.csv,1 1 0 0 0 0 0 0 1 1,4,categoryB,j,,,0,0,0,7,2,7,35,6,,,,,,,,,,,,,,,,,,,f,0,0.527074375,,,,,,,,,,,,,,,,,,,,,,,,,,,,,,,,,,,,888,2,2021_Sep_10_1053,joplin1,2021.2.3,59.96619406
_train_cond.csv,0 0 1 0 0 0 0 1 0 0,2,categoryB,j,,,0,0,0,7,2,8,36,5,,,,,,,,,,,,,,,,,,,j,1,1.251265833,,,,,,,,,,,,,,,,,,,,,,,,,,,,,,,,,,,,888,2,2021_Sep_10_1053,joplin1,2021.2.3,59.96619406
_train_cond.csv,0 1 1 1 1 1 1 1 1 0,8,categoryA,f,,,0,0,0,7,2,9,37,7,,,,,,,,,,,,,,,,,,,f,1,0.352327416,,,,,,,,,,,,,,,,,,,,,,,,,,,,,,,,,,,,888,2,2021_Sep_10_1053,joplin1,2021.2.3,59.96619406
_train_cond.csv,1 1 0 1 1 1 1 0 1 1,8,categoryA,f,,,0,0,0,7,2,10,38,12,,,,,,,,,,,,,,,,,,,f,1,0.3258265,,,,,,,,,,,,,,,,,,,,,,,,,,,,,,,,,,,,888,2,2021_Sep_10_1053,joplin1,2021.2.3,59.96619406
_train_cond.csv,1 0 1 1 1 1 1 1 0 1,8,categoryA,f,,,0,0,0,7,2,11,39,8,,,,,,,,,,,,,,,,,,,f,1,0.955866458,,,,,,,,,,,,,,,,,,,,,,,,,,,,,,,,,,,,888,2,2021_Sep_10_1053,joplin1,2021.2.3,59.96619406
_train_cond.csv,1 1 1 0 0 0 0 1 1 1,6,categoryA,f,,,0,0,0,7,2,12,40,10,,,,,,,,,,,,,,,,,,,f,1,0.538941708,,,,,,,,,,,,,,,,,,,,,,,,,,,,,,,,,,,,888,2,2021_Sep_10_1053,joplin1,2021.2.3,59.96619406
_train_cond.csv,0 0 1 0 1 1 0 1 0 0,4,categoryB,j,,,0,0,0,7,2,13,41,2,,,,,,,,,,,,,,,,,,,j,1,0.668582417,,,,,,,,,,,,,,,,,,,,,,,,,,,,,,,,,,,,888,2,2021_Sep_10_1053,joplin1,2021.2.3,59.96619406
_train_cond.csv,,,,,,,0,0,0,7,,,,,,,,,,,,,,,,,,,,,,,,,,space,2.296017,,,,,,,,,,,,,,,,,,,,,,,,,,,,,,,,,,888,2,2021_Sep_10_1053,joplin1,2021.2.3,59.96619406
_train_cond.csv,1 0 1 1 1 1 1 1 0 1,8,categoryA,f,,,0,1,1,3,0,0,0,8,,,,,,,,,,,,,,,,,,,f,1,0.854212416,,,,,,,,,,,,,,,,,,,,,,,,,,,,,,,,,,,,888,2,2021_Sep_10_1053,joplin1,2021.2.3,59.96619406
_train_cond.csv,0 0 1 0 0 0 0 1 0 0,2,categoryB,j,,,0,1,1,3,0,1,1,5,,,,,,,,,,,,,,,,,,,j,1,1.031276583,,,,,,,,,,,,,,,,,,,,,,,,,,,,,,,,,,,,888,2,2021_Sep_10_1053,joplin1,2021.2.3,59.96619406
_train_cond.csv,1 1 1 0 0 0 0 1 1 1,6,categoryA,f,,,0,1,1,3,0,2,2,10,,,,,,,,,,,,,,,,,,,f,1,0.351407667,,,,,,,,,,,,,,,,,,,,,,,,,,,,,,,,,,,,888,2,2021_Sep_10_1053,joplin1,2021.2.3,59.96619406
_train_cond.csv,1 1 1 0 1 1 0 1 1 1,8,categoryA,f,,,0,1,1,3,0,3,3,11,,,,,,,,,,,,,,,,,,,f,1,0.33037025,,,,,,,,,,,,,,,,,,,,,,,,,,,,,,,,,,,,888,2,2021_Sep_10_1053,joplin1,2021.2.3,59.96619406
_train_cond.csv,1 1 0 1 1 1 1 0 1 1,8,categoryA,f,,,0,1,1,3,0,4,4,12,,,,,,,,,,,,,,,,,,,j,0,0.421510292,,,,,,,,,,,,,,,,,,,,,,,,,,,,,,,,,,,,888,2,2021_Sep_10_1053,joplin1,2021.2.3,59.96619406
_train_cond.csv,1 0 0 0 0 0 0 0 0 1,2,categoryB,j,,,0,1,1,3,0,5,5,0,,,,,,,,,,,,,,,,,,,j,1,0.338104209,,,,,,,,,,,,,,,,,,,,,,,,,,,,,,,,,,,,888,2,2021_Sep_10_1053,joplin1,2021.2.3,59.96619406
_train_cond.csv,0 0 0 1 1 1 1 0 0 0,4,categoryB,j,,,0,1,1,3,0,6,6,3,,,,,,,,,,,,,,,,,,,j,1,0.603877958,,,,,,,,,,,,,,,,,,,,,,,,,,,,,,,,,,,,888,2,2021_Sep_10_1053,joplin1,2021.2.3,59.96619406
_train_cond.csv,1 1 0 0 0 0 0 0 1 1,4,categoryB,j,,,0,1,1,3,0,7,7,6,,,,,,,,,,,,,,,,,,,j,1,0.394626791,,,,,,,,,,,,,,,,,,,,,,,,,,,,,,,,,,,,888,2,2021_Sep_10_1053,joplin1,2021.2.3,59.96619406
_train_cond.csv,0 0 1 0 1 1 0 1 0 0,4,categoryB,j,,,0,1,1,3,0,8,8,2,,,,,,,,,,,,,,,,,,,f,0,0.395623583,,,,,,,,,,,,,,,,,,,,,,,,,,,,,,,,,,,,888,2,2021_Sep_10_1053,joplin1,2021.2.3,59.96619406
_train_cond.csv,0 1 1 1 1 1 1 1 1 0,8,categoryA,f,,,0,1,1,3,0,9,9,7,,,,,,,,,,,,,,,,,,,f,1,0.33720125,,,,,,,,,,,,,,,,,,,,,,,,,,,,,,,,,,,,888,2,2021_Sep_10_1053,joplin1,2021.2.3,59.96619406
_train_cond.csv,0 0 0 1 0 0 1 0 0 0,2,categoryB,j,,,0,1,1,3,0,10,10,4,,,,,,,,,,,,,,,,,,,j,1,0.308247458,,,,,,,,,,,,,,,,,,,,,,,,,,,,,,,,,,,,888,2,2021_Sep_10_1053,joplin1,2021.2.3,59.96619406
_train_cond.csv,0 0 1 1 1 1 1 1 0 0,6,categoryA,f,,,0,1,1,3,0,11,11,13,,,,,,,,,,,,,,,,,,,f,1,0.454297708,,,,,,,,,,,,,,,,,,,,,,,,,,,,,,,,,,,,888,2,2021_Sep_10_1053,joplin1,2021.2.3,59.96619406
_train_cond.csv,1 1 0 1 0 0 1 0 1 1,6,categoryA,f,,,0,1,1,3,0,12,12,9,,,,,,,,,,,,,,,,,,,j,0,0.31798625,,,,,,,,,,,,,,,,,,,,,,,,,,,,,,,,,,,,888,2,2021_Sep_10_1053,joplin1,2021.2.3,59.96619406
_train_cond.csv,0 1 0 0 0 0 0 0 1 0,2,categoryB,j,,,0,1,1,3,0,13,13,1,,,,,,,,,,,,,,,,,,,j,1,0.291688542,,,,,,,,,,,,,,,,,,,,,,,,,,,,,,,,,,,,888,2,2021_Sep_10_1053,joplin1,2021.2.3,59.96619406
_train_cond.csv,0 0 1 1 1 1 1 1 0 0,6,categoryA,f,,,0,1,1,3,1,0,14,13,,,,,,,,,,,,,,,,,,,f,1,1.005472083,,,,,,,,,,,,,,,,,,,,,,,,,,,,,,,,,,,,888,2,2021_Sep_10_1053,joplin1,2021.2.3,59.96619406
_train_cond.csv,0 0 0 1 1 1 1 0 0 0,4,categoryB,j,,,0,1,1,3,1,1,15,3,,,,,,,,,,,,,,,,,,,f,0,0.292887584,,,,,,,,,,,,,,,,,,,,,,,,,,,,,,,,,,,,888,2,2021_Sep_10_1053,joplin1,2021.2.3,59.96619406
_train_cond.csv,1 1 0 1 1 1 1 0 1 1,8,categoryA,f,,,0,1,1,3,1,2,16,12,,,,,,,,,,,,,,,,,,,j,0,0.950261,,,,,,,,,,,,,,,,,,,,,,,,,,,,,,,,,,,,888,2,2021_Sep_10_1053,joplin1,2021.2.3,59.96619406
_train_cond.csv,0 0 0 1 0 0 1 0 0 0,2,categoryB,j,,,0,1,1,3,1,3,17,4,,,,,,,,,,,,,,,,,,,j,1,0.300286209,,,,,,,,,,,,,,,,,,,,,,,,,,,,,,,,,,,,888,2,2021_Sep_10_1053,joplin1,2021.2.3,59.96619406
_train_cond.csv,1 1 0 0 0 0 0 0 1 1,4,categoryB,j,,,0,1,1,3,1,4,18,6,,,,,,,,,,,,,,,,,,,j,1,0.669154167,,,,,,,,,,,,,,,,,,,,,,,,,,,,,,,,,,,,888,2,2021_Sep_10_1053,joplin1,2021.2.3,59.96619406
_train_cond.csv,1 0 1 1 1 1 1 1 0 1,8,categoryA,f,,,0,1,1,3,1,5,19,8,,,,,,,,,,,,,,,,,,,f,1,0.780039833,,,,,,,,,,,,,,,,,,,,,,,,,,,,,,,,,,,,888,2,2021_Sep_10_1053,joplin1,2021.2.3,59.96619406
_train_cond.csv,1 0 0 0 0 0 0 0 0 1,2,categoryB,j,,,0,1,1,3,1,6,20,0,,,,,,,,,,,,,,,,,,,f,0,0.310746125,,,,,,,,,,,,,,,,,,,,,,,,,,,,,,,,,,,,888,2,2021_Sep_10_1053,joplin1,2021.2.3,59.96619406
_train_cond.csv,1 1 0 1 0 0 1 0 1 1,6,categoryA,f,,,0,1,1,3,1,7,21,9,,,,,,,,,,,,,,,,,,,j,0,0.452048166,,,,,,,,,,,,,,,,,,,,,,,,,,,,,,,,,,,,888,2,2021_Sep_10_1053,joplin1,2021.2.3,59.96619406
_train_cond.csv,1 1 1 0 0 0 0 1 1 1,6,categoryA,f,,,0,1,1,3,1,8,22,10,,,,,,,,,,,,,,,,,,,f,1,0.314754625,,,,,,,,,,,,,,,,,,,,,,,,,,,,,,,,,,,,888,2,2021_Sep_10_1053,joplin1,2021.2.3,59.96619406
_train_cond.csv,1 1 1 0 1 1 0 1 1 1,8,categoryA,f,,,0,1,1,3,1,9,23,11,,,,,,,,,,,,,,,,,,,f,1,0.771565792,,,,,,,,,,,,,,,,,,,,,,,,,,,,,,,,,,,,888,2,2021_Sep_10_1053,joplin1,2021.2.3,59.96619406
_train_cond.csv,0 1 1 1 1 1 1 1 1 0,8,categoryA,f,,,0,1,1,3,1,10,24,7,,,,,,,,,,,,,,,,,,,f,1,0.358954458,,,,,,,,,,,,,,,,,,,,,,,,,,,,,,,,,,,,888,2,2021_Sep_10_1053,joplin1,2021.2.3,59.96619406
_train_cond.csv,0 0 1 0 1 1 0 1 0 0,4,categoryB,j,,,0,1,1,3,1,11,25,2,,,,,,,,,,,,,,,,,,,j,1,0.540588375,,,,,,,,,,,,,,,,,,,,,,,,,,,,,,,,,,,,888,2,2021_Sep_10_1053,joplin1,2021.2.3,59.96619406
_train_cond.csv,0 0 1 0 0 0 0 1 0 0,2,categoryB,j,,,0,1,1,3,1,12,26,5,,,,,,,,,,,,,,,,,,,j,1,0.466247416,,,,,,,,,,,,,,,,,,,,,,,,,,,,,,,,,,,,888,2,2021_Sep_10_1053,joplin1,2021.2.3,59.96619406
_train_cond.csv,0 1 0 0 0 0 0 0 1 0,2,categoryB,j,,,0,1,1,3,1,13,27,1,,,,,,,,,,,,,,,,,,,f,0,0.358797834,,,,,,,,,,,,,,,,,,,,,,,,,,,,,,,,,,,,888,2,2021_Sep_10_1053,joplin1,2021.2.3,59.96619406
_train_cond.csv,1 1 0 0 0 0 0 0 1 1,4,categoryB,j,,,0,1,1,3,2,0,28,6,,,,,,,,,,,,,,,,,,,j,1,0.346684584,,,,,,,,,,,,,,,,,,,,,,,,,,,,,,,,,,,,888,2,2021_Sep_10_1053,joplin1,2021.2.3,59.96619406
_train_cond.csv,0 0 1 0 1 1 0 1 0 0,4,categoryB,j,,,0,1,1,3,2,1,29,2,,,,,,,,,,,,,,,,,,,j,1,0.629500375,,,,,,,,,,,,,,,,,,,,,,,,,,,,,,,,,,,,888,2,2021_Sep_10_1053,joplin1,2021.2.3,59.96619406
_train_cond.csv,0 0 1 0 0 0 0 1 0 0,2,categoryB,j,,,0,1,1,3,2,2,30,5,,,,,,,,,,,,,,,,,,,j,1,0.252693125,,,,,,,,,,,,,,,,,,,,,,,,,,,,,,,,,,,,888,2,2021_Sep_10_1053,joplin1,2021.2.3,59.96619406
_train_cond.csv,1 0 1 1 1 1 1 1 0 1,8,categoryA,f,,,0,1,1,3,2,3,31,8,,,,,,,,,,,,,,,,,,,j,0,0.447336,,,,,,,,,,,,,,,,,,,,,,,,,,,,,,,,,,,,888,2,2021_Sep_10_1053,joplin1,2021.2.3,59.96619406
_train_cond.csv,1 1 0 1 0 0 1 0 1 1,6,categoryA,f,,,0,1,1,3,2,4,32,9,,,,,,,,,,,,,,,,,,,j,0,0.257627084,,,,,,,,,,,,,,,,,,,,,,,,,,,,,,,,,,,,888,2,2021_Sep_10_1053,joplin1,2021.2.3,59.96619406
_train_cond.csv,0 0 0 1 0 0 1 0 0 0,2,categoryB,j,,,0,1,1,3,2,5,33,4,,,,,,,,,,,,,,,,,,,j,1,0.285882084,,,,,,,,,,,,,,,,,,,,,,,,,,,,,,,,,,,,888,2,2021_Sep_10_1053,joplin1,2021.2.3,59.96619406
_train_cond.csv,1 0 0 0 0 0 0 0 0 1,2,categoryB,j,,,0,1,1,3,2,6,34,0,,,,,,,,,,,,,,,,,,,j,1,0.984087375,,,,,,,,,,,,,,,,,,,,,,,,,,,,,,,,,,,,888,2,2021_Sep_10_1053,joplin1,2021.2.3,59.96619406
_train_cond.csv,1 1 1 0 0 0 0 1 1 1,6,categoryA,f,,,0,1,1,3,2,7,35,10,,,,,,,,,,,,,,,,,,,f,1,0.327291375,,,,,,,,,,,,,,,,,,,,,,,,,,,,,,,,,,,,888,2,2021_Sep_10_1053,joplin1,2021.2.3,59.96619406
_train_cond.csv,0 0 1 1 1 1 1 1 0 0,6,categoryA,f,,,0,1,1,3,2,8,36,13,,,,,,,,,,,,,,,,,,,j,0,0.307115833,,,,,,,,,,,,,,,,,,,,,,,,,,,,,,,,,,,,888,2,2021_Sep_10_1053,joplin1,2021.2.3,59.96619406
_train_cond.csv,0 1 0 0 0 0 0 0 1 0,2,categoryB,j,,,0,1,1,3,2,9,37,1,,,,,,,,,,,,,,,,,,,j,1,0.801068584,,,,,,,,,,,,,,,,,,,,,,,,,,,,,,,,,,,,888,2,2021_Sep_10_1053,joplin1,2021.2.3,59.96619406
_train_cond.csv,0 0 0 1 1 1 1 0 0 0,4,categoryB,j,,,0,1,1,3,2,10,38,3,,,,,,,,,,,,,,,,,,,f,0,1.211140208,,,,,,,,,,,,,,,,,,,,,,,,,,,,,,,,,,,,888,2,2021_Sep_10_1053,joplin1,2021.2.3,59.96619406
_train_cond.csv,1 1 0 1 1 1 1 0 1 1,8,categoryA,f,,,0,1,1,3,2,11,39,12,,,,,,,,,,,,,,,,,,,j,0,0.332231875,,,,,,,,,,,,,,,,,,,,,,,,,,,,,,,,,,,,888,2,2021_Sep_10_1053,joplin1,2021.2.3,59.96619406
_train_cond.csv,0 1 1 1 1 1 1 1 1 0,8,categoryA,f,,,0,1,1,3,2,12,40,7,,,,,,,,,,,,,,,,,,,f,1,0.358063167,,,,,,,,,,,,,,,,,,,,,,,,,,,,,,,,,,,,888,2,2021_Sep_10_1053,joplin1,2021.2.3,59.96619406
_train_cond.csv,1 1 1 0 1 1 0 1 1 1,8,categoryA,f,,,0,1,1,3,2,13,41,11,,,,,,,,,,,,,,,,,,,f,1,0.834411833,,,,,,,,,,,,,,,,,,,,,,,,,,,,,,,,,,,,888,2,2021_Sep_10_1053,joplin1,2021.2.3,59.96619406
_train_cond.csv,,,,,,,0,1,1,3,,,,,,,,,,,,,,,,,,,,,,,,,,space,12.09623104,,,,,,,,,,,,,,,,,,,,,,,,,,,,,,,,,,888,2,2021_Sep_10_1053,joplin1,2021.2.3,59.96619406
_train_cond.csv,0 0 1 1 1 1 1 1 0 0,6,categoryA,f,,,0,2,2,4,0,0,0,13,,,,,,,,,,,,,,,,,,,j,0,0.24131075,,,,,,,,,,,,,,,,,,,,,,,,,,,,,,,,,,,,888,2,2021_Sep_10_1053,joplin1,2021.2.3,59.96619406
_train_cond.csv,1 1 0 0 0 0 0 0 1 1,4,categoryB,j,,,0,2,2,4,0,1,1,6,,,,,,,,,,,,,,,,,,,j,1,0.360054583,,,,,,,,,,,,,,,,,,,,,,,,,,,,,,,,,,,,888,2,2021_Sep_10_1053,joplin1,2021.2.3,59.96619406
_train_cond.csv,0 0 1 0 1 1 0 1 0 0,4,categoryB,j,,,0,2,2,4,0,2,2,2,,,,,,,,,,,,,,,,,,,f,0,1.593626083,,,,,,,,,,,,,,,,,,,,,,,,,,,,,,,,,,,,888,2,2021_Sep_10_1053,joplin1,2021.2.3,59.96619406
_train_cond.csv,0 1 0 0 0 0 0 0 1 0,2,categoryB,j,,,0,2,2,4,0,3,3,1,,,,,,,,,,,,,,,,,,,j,1,0.303706667,,,,,,,,,,,,,,,,,,,,,,,,,,,,,,,,,,,,888,2,2021_Sep_10_1053,joplin1,2021.2.3,59.96619406
_train_cond.csv,1 0 1 1 1 1 1 1 0 1,8,categoryA,f,,,0,2,2,4,0,4,4,8,,,,,,,,,,,,,,,,,,,f,1,0.787413209,,,,,,,,,,,,,,,,,,,,,,,,,,,,,,,,,,,,888,2,2021_Sep_10_1053,joplin1,2021.2.3,59.96619406
_train_cond.csv,1 1 0 1 1 1 1 0 1 1,8,categoryA,f,,,0,2,2,4,0,5,5,12,,,,,,,,,,,,,,,,,,,f,1,0.427183834,,,,,,,,,,,,,,,,,,,,,,,,,,,,,,,,,,,,888,2,2021_Sep_10_1053,joplin1,2021.2.3,59.96619406
_train_cond.csv,1 0 0 0 0 0 0 0 0 1,2,categoryB,j,,,0,2,2,4,0,6,6,0,,,,,,,,,,,,,,,,,,,j,1,0.30395325,,,,,,,,,,,,,,,,,,,,,,,,,,,,,,,,,,,,888,2,2021_Sep_10_1053,joplin1,2021.2.3,59.96619406
_train_cond.csv,0 1 1 1 1 1 1 1 1 0,8,categoryA,f,,,0,2,2,4,0,7,7,7,,,,,,,,,,,,,,,,,,,f,1,0.253094292,,,,,,,,,,,,,,,,,,,,,,,,,,,,,,,,,,,,888,2,2021_Sep_10_1053,joplin1,2021.2.3,59.96619406
_train_cond.csv,0 0 1 0 0 0 0 1 0 0,2,categoryB,j,,,0,2,2,4,0,8,8,5,,,,,,,,,,,,,,,,,,,j,1,0.445766042,,,,,,,,,,,,,,,,,,,,,,,,,,,,,,,,,,,,888,2,2021_Sep_10_1053,joplin1,2021.2.3,59.96619406
_train_cond.csv,0 0 0 1 1 1 1 0 0 0,4,categoryB,j,,,0,2,2,4,0,9,9,3,,,,,,,,,,,,,,,,,,,j,1,0.506077417,,,,,,,,,,,,,,,,,,,,,,,,,,,,,,,,,,,,888,2,2021_Sep_10_1053,joplin1,2021.2.3,59.96619406
_train_cond.csv,0 0 0 1 0 0 1 0 0 0,2,categoryB,j,,,0,2,2,4,0,10,10,4,,,,,,,,,,,,,,,,,,,j,1,0.282611584,,,,,,,,,,,,,,,,,,,,,,,,,,,,,,,,,,,,888,2,2021_Sep_10_1053,joplin1,2021.2.3,59.96619406
_train_cond.csv,1 1 1 0 1 1 0 1 1 1,8,categoryA,f,,,0,2,2,4,0,11,11,11,,,,,,,,,,,,,,,,,,,f,1,0.2344965,,,,,,,,,,,,,,,,,,,,,,,,,,,,,,,,,,,,888,2,2021_Sep_10_1053,joplin1,2021.2.3,59.96619406
_train_cond.csv,1 1 1 0 0 0 0 1 1 1,6,categoryA,f,,,0,2,2,4,0,12,12,10,,,,,,,,,,,,,,,,,,,f,1,0.2748515,,,,,,,,,,,,,,,,,,,,,,,,,,,,,,,,,,,,888,2,2021_Sep_10_1053,joplin1,2021.2.3,59.96619406
_train_cond.csv,1 1 0 1 0 0 1 0 1 1,6,categoryA,f,,,0,2,2,4,0,13,13,9,,,,,,,,,,,,,,,,,,,f,1,0.233220958,,,,,,,,,,,,,,,,,,,,,,,,,,,,,,,,,,,,888,2,2021_Sep_10_1053,joplin1,2021.2.3,59.96619406
_train_cond.csv,0 0 1 1 1 1 1 1 0 0,6,categoryA,f,,,0,2,2,4,1,0,14,13,,,,,,,,,,,,,,,,,,,j,0,0.271078458,,,,,,,,,,,,,,,,,,,,,,,,,,,,,,,,,,,,888,2,2021_Sep_10_1053,joplin1,2021.2.3,59.96619406
_train_cond.csv,1 1 0 1 1 1 1 0 1 1,8,categoryA,f,,,0,2,2,4,1,1,15,12,,,,,,,,,,,,,,,,,,,f,1,0.572716666,,,,,,,,,,,,,,,,,,,,,,,,,,,,,,,,,,,,888,2,2021_Sep_10_1053,joplin1,2021.2.3,59.96619406
_train_cond.csv,0 0 1 0 1 1 0 1 0 0,4,categoryB,j,,,0,2,2,4,1,2,16,2,,,,,,,,,,,,,,,,,,,f,0,0.412407,,,,,,,,,,,,,,,,,,,,,,,,,,,,,,,,,,,,888,2,2021_Sep_10_1053,joplin1,2021.2.3,59.96619406
_train_cond.csv,0 0 0 1 0 0 1 0 0 0,2,categoryB,j,,,0,2,2,4,1,3,17,4,,,,,,,,,,,,,,,,,,,f,0,0.401065792,,,,,,,,,,,,,,,,,,,,,,,,,,,,,,,,,,,,888,2,2021_Sep_10_1053,joplin1,2021.2.3,59.96619406
_train_cond.csv,0 0 1 0 0 0 0 1 0 0,2,categoryB,j,,,0,2,2,4,1,4,18,5,,,,,,,,,,,,,,,,,,,j,1,0.240374208,,,,,,,,,,,,,,,,,,,,,,,,,,,,,,,,,,,,888,2,2021_Sep_10_1053,joplin1,2021.2.3,59.96619406
_train_cond.csv,1 1 0 0 0 0 0 0 1 1,4,categoryB,j,,,0,2,2,4,1,5,19,6,,,,,,,,,,,,,,,,,,,j,1,0.699084125,,,,,,,,,,,,,,,,,,,,,,,,,,,,,,,,,,,,888,2,2021_Sep_10_1053,joplin1,2021.2.3,59.96619406
_train_cond.csv,0 1 0 0 0 0 0 0 1 0,2,categoryB,j,,,0,2,2,4,1,6,20,1,,,,,,,,,,,,,,,,,,,j,1,0.300692542,,,,,,,,,,,,,,,,,,,,,,,,,,,,,,,,,,,,888,2,2021_Sep_10_1053,joplin1,2021.2.3,59.96619406
_train_cond.csv,0 1 1 1 1 1 1 1 1 0,8,categoryA,f,,,0,2,2,4,1,7,21,7,,,,,,,,,,,,,,,,,,,f,1,0.344054834,,,,,,,,,,,,,,,,,,,,,,,,,,,,,,,,,,,,888,2,2021_Sep_10_1053,joplin1,2021.2.3,59.96619406
_train_cond.csv,1 1 1 0 1 1 0 1 1 1,8,categoryA,f,,,0,2,2,4,1,8,22,11,,,,,,,,,,,,,,,,,,,j,0,0.493704417,,,,,,,,,,,,,,,,,,,,,,,,,,,,,,,,,,,,888,2,2021_Sep_10_1053,joplin1,2021.2.3,59.96619406
_train_cond.csv,1 0 0 0 0 0 0 0 0 1,2,categoryB,j,,,0,2,2,4,1,9,23,0,,,,,,,,,,,,,,,,,,,j,1,0.272641625,,,,,,,,,,,,,,,,,,,,,,,,,,,,,,,,,,,,888,2,2021_Sep_10_1053,joplin1,2021.2.3,59.96619406
_train_cond.csv,1 1 0 1 0 0 1 0 1 1,6,categoryA,f,,,0,2,2,4,1,10,24,9,,,,,,,,,,,,,,,,,,,j,0,1.332682208,,,,,,,,,,,,,,,,,,,,,,,,,,,,,,,,,,,,888,2,2021_Sep_10_1053,joplin1,2021.2.3,59.96619406
_train_cond.csv,1 0 1 1 1 1 1 1 0 1,8,categoryA,f,,,0,2,2,4,1,11,25,8,,,,,,,,,,,,,,,,,,,f,1,0.621817292,,,,,,,,,,,,,,,,,,,,,,,,,,,,,,,,,,,,888,2,2021_Sep_10_1053,joplin1,2021.2.3,59.96619406
_train_cond.csv,0 0 0 1 1 1 1 0 0 0,4,categoryB,j,,,0,2,2,4,1,12,26,3,,,,,,,,,,,,,,,,,,,f,0,0.328993917,,,,,,,,,,,,,,,,,,,,,,,,,,,,,,,,,,,,888,2,2021_Sep_10_1053,joplin1,2021.2.3,59.96619406
_train_cond.csv,1 1 1 0 0 0 0 1 1 1,6,categoryA,f,,,0,2,2,4,1,13,27,10,,,,,,,,,,,,,,,,,,,f,1,0.853121958,,,,,,,,,,,,,,,,,,,,,,,,,,,,,,,,,,,,888,2,2021_Sep_10_1053,joplin1,2021.2.3,59.96619406
_train_cond.csv,1 0 1 1 1 1 1 1 0 1,8,categoryA,f,,,0,2,2,4,2,0,28,8,,,,,,,,,,,,,,,,,,,j,0,0.300779375,,,,,,,,,,,,,,,,,,,,,,,,,,,,,,,,,,,,888,2,2021_Sep_10_1053,joplin1,2021.2.3,59.96619406
_train_cond.csv,0 1 0 0 0 0 0 0 1 0,2,categoryB,j,,,0,2,2,4,2,1,29,1,,,,,,,,,,,,,,,,,,,j,1,0.296103042,,,,,,,,,,,,,,,,,,,,,,,,,,,,,,,,,,,,888,2,2021_Sep_10_1053,joplin1,2021.2.3,59.96619406
_train_cond.csv,1 1 0 1 1 1 1 0 1 1,8,categoryA,f,,,0,2,2,4,2,2,30,12,,,,,,,,,,,,,,,,,,,j,0,1.365726292,,,,,,,,,,,,,,,,,,,,,,,,,,,,,,,,,,,,888,2,2021_Sep_10_1053,joplin1,2021.2.3,59.96619406
_train_cond.csv,1 1 0 1 0 0 1 0 1 1,6,categoryA,f,,,0,2,2,4,2,3,31,9,,,,,,,,,,,,,,,,,,,f,1,0.4981995,,,,,,,,,,,,,,,,,,,,,,,,,,,,,,,,,,,,888,2,2021_Sep_10_1053,joplin1,2021.2.3,59.96619406
_train_cond.csv,0 0 0 1 1 1 1 0 0 0,4,categoryB,j,,,0,2,2,4,2,4,32,3,,,,,,,,,,,,,,,,,,,j,1,0.235374917,,,,,,,,,,,,,,,,,,,,,,,,,,,,,,,,,,,,888,2,2021_Sep_10_1053,joplin1,2021.2.3,59.96619406
_train_cond.csv,0 0 1 0 1 1 0 1 0 0,4,categoryB,j,,,0,2,2,4,2,5,33,2,,,,,,,,,,,,,,,,,,,j,1,0.809696667,,,,,,,,,,,,,,,,,,,,,,,,,,,,,,,,,,,,888,2,2021_Sep_10_1053,joplin1,2021.2.3,59.96619406
_train_cond.csv,1 1 1 0 1 1 0 1 1 1,8,categoryA,f,,,0,2,2,4,2,6,34,11,,,,,,,,,,,,,,,,,,,f,1,0.497607459,,,,,,,,,,,,,,,,,,,,,,,,,,,,,,,,,,,,888,2,2021_Sep_10_1053,joplin1,2021.2.3,59.96619406
_train_cond.csv,1 1 0 0 0 0 0 0 1 1,4,categoryB,j,,,0,2,2,4,2,7,35,6,,,,,,,,,,,,,,,,,,,j,1,0.260892542,,,,,,,,,,,,,,,,,,,,,,,,,,,,,,,,,,,,888,2,2021_Sep_10_1053,joplin1,2021.2.3,59.96619406
_train_cond.csv,0 0 1 1 1 1 1 1 0 0,6,categoryA,f,,,0,2,2,4,2,8,36,13,,,,,,,,,,,,,,,,,,,j,0,0.275719208,,,,,,,,,,,,,,,,,,,,,,,,,,,,,,,,,,,,888,2,2021_Sep_10_1053,joplin1,2021.2.3,59.96619406
_train_cond.csv,1 1 1 0 0 0 0 1 1 1,6,categoryA,f,,,0,2,2,4,2,9,37,10,,,,,,,,,,,,,,,,,,,f,1,0.707255583,,,,,,,,,,,,,,,,,,,,,,,,,,,,,,,,,,,,888,2,2021_Sep_10_1053,joplin1,2021.2.3,59.96619406
_train_cond.csv,1 0 0 0 0 0 0 0 0 1,2,categoryB,j,,,0,2,2,4,2,10,38,0,,,,,,,,,,,,,,,,,,,f,0,1.094266292,,,,,,,,,,,,,,,,,,,,,,,,,,,,,,,,,,,,888,2,2021_Sep_10_1053,joplin1,2021.2.3,59.96619406
_train_cond.csv,0 0 1 0 0 0 0 1 0 0,2,categoryB,j,,,0,2,2,4,2,11,39,5,,,,,,,,,,,,,,,,,,,j,1,0.233274542,,,,,,,,,,,,,,,,,,,,,,,,,,,,,,,,,,,,888,2,2021_Sep_10_1053,joplin1,2021.2.3,59.96619406
_train_cond.csv,0 1 1 1 1 1 1 1 1 0,8,categoryA,f,,,0,2,2,4,2,12,40,7,,,,,,,,,,,,,,,,,,,j,0,0.261925917,,,,,,,,,,,,,,,,,,,,,,,,,,,,,,,,,,,,888,2,2021_Sep_10_1053,joplin1,2021.2.3,59.96619406
_train_cond.csv,0 0 0 1 0 0 1 0 0 0,2,categoryB,j,,,0,2,2,4,2,13,41,4,,,,,,,,,,,,,,,,,,,j,1,0.273917542,,,,,,,,,,,,,,,,,,,,,,,,,,,,,,,,,,,,888,2,2021_Sep_10_1053,joplin1,2021.2.3,59.96619406
_train_cond.csv,,,,,,,0,2,2,4,,,,,,,,,,,,,,,,,,,,,,,,,,space,10.70929679,,,,,,,,,,,,,,,,,,,,,,,,,,,,,,,,,,888,2,2021_Sep_10_1053,joplin1,2021.2.3,59.96619406
_train_cond.csv,0 1 1 1 1 1 1 1 1 0,8,categoryA,f,,,0,3,3,5,0,0,0,7,,,,,,,,,,,,,,,,,,,j,0,0.475505875,,,,,,,,,,,,,,,,,,,,,,,,,,,,,,,,,,,,888,2,2021_Sep_10_1053,joplin1,2021.2.3,59.96619406
_train_cond.csv,0 0 1 0 1 1 0 1 0 0,4,categoryB,j,,,0,3,3,5,0,1,1,2,,,,,,,,,,,,,,,,,,,j,1,0.381194292,,,,,,,,,,,,,,,,,,,,,,,,,,,,,,,,,,,,888,2,2021_Sep_10_1053,joplin1,2021.2.3,59.96619406
_train_cond.csv,0 0 1 0 0 0 0 1 0 0,2,categoryB,j,,,0,3,3,5,0,2,2,5,,,,,,,,,,,,,,,,,,,j,1,0.301163333,,,,,,,,,,,,,,,,,,,,,,,,,,,,,,,,,,,,888,2,2021_Sep_10_1053,joplin1,2021.2.3,59.96619406
_train_cond.csv,0 0 0 1 0 0 1 0 0 0,2,categoryB,j,,,0,3,3,5,0,3,3,4,,,,,,,,,,,,,,,,,,,j,1,0.257548875,,,,,,,,,,,,,,,,,,,,,,,,,,,,,,,,,,,,888,2,2021_Sep_10_1053,joplin1,2021.2.3,59.96619406
_train_cond.csv,1 1 1 0 1 1 0 1 1 1,8,categoryA,f,,,0,3,3,5,0,4,4,11,,,,,,,,,,,,,,,,,,,f,1,0.270829583,,,,,,,,,,,,,,,,,,,,,,,,,,,,,,,,,,,,888,2,2021_Sep_10_1053,joplin1,2021.2.3,59.96619406
_train_cond.csv,1 0 0 0 0 0 0 0 0 1,2,categoryB,j,,,0,3,3,5,0,5,5,0,,,,,,,,,,,,,,,,,,,j,1,0.359522709,,,,,,,,,,,,,,,,,,,,,,,,,,,,,,,,,,,,888,2,2021_Sep_10_1053,joplin1,2021.2.3,59.96619406
_train_cond.csv,1 1 0 0 0 0 0 0 1 1,4,categoryB,j,,,0,3,3,5,0,6,6,6,,,,,,,,,,,,,,,,,,,j,1,0.308550542,,,,,,,,,,,,,,,,,,,,,,,,,,,,,,,,,,,,888,2,2021_Sep_10_1053,joplin1,2021.2.3,59.96619406
_train_cond.csv,1 1 1 0 0 0 0 1 1 1,6,categoryA,f,,,0,3,3,5,0,7,7,10,,,,,,,,,,,,,,,,,,,j,0,0.572179917,,,,,,,,,,,,,,,,,,,,,,,,,,,,,,,,,,,,888,2,2021_Sep_10_1053,joplin1,2021.2.3,59.96619406
_train_cond.csv,1 1 0 1 0 0 1 0 1 1,6,categoryA,f,,,0,3,3,5,0,8,8,9,,,,,,,,,,,,,,,,,,,j,0,0.292956334,,,,,,,,,,,,,,,,,,,,,,,,,,,,,,,,,,,,888,2,2021_Sep_10_1053,joplin1,2021.2.3,59.96619406
_train_cond.csv,0 0 1 1 1 1 1 1 0 0,6,categoryA,f,,,0,3,3,5,0,9,9,13,,,,,,,,,,,,,,,,,,,j,0,0.255579334,,,,,,,,,,,,,,,,,,,,,,,,,,,,,,,,,,,,888,2,2021_Sep_10_1053,joplin1,2021.2.3,59.96619406
_train_cond.csv,0 0 0 1 1 1 1 0 0 0,4,categoryB,j,,,0,3,3,5,0,10,10,3,,,,,,,,,,,,,,,,,,,j,1,0.408771375,,,,,,,,,,,,,,,,,,,,,,,,,,,,,,,,,,,,888,2,2021_Sep_10_1053,joplin1,2021.2.3,59.96619406
_train_cond.csv,1 1 0 1 1 1 1 0 1 1,8,categoryA,f,,,0,3,3,5,0,11,11,12,,,,,,,,,,,,,,,,,,,f,1,0.58808475,,,,,,,,,,,,,,,,,,,,,,,,,,,,,,,,,,,,888,2,2021_Sep_10_1053,joplin1,2021.2.3,59.96619406
_train_cond.csv,1 0 1 1 1 1 1 1 0 1,8,categoryA,f,,,0,3,3,5,0,12,12,8,,,,,,,,,,,,,,,,,,,j,0,0.431237334,,,,,,,,,,,,,,,,,,,,,,,,,,,,,,,,,,,,888,2,2021_Sep_10_1053,joplin1,2021.2.3,59.96619406
_train_cond.csv,0 1 0 0 0 0 0 0 1 0,2,categoryB,j,,,0,3,3,5,0,13,13,1,,,,,,,,,,,,,,,,,,,j,1,0.453790625,,,,,,,,,,,,,,,,,,,,,,,,,,,,,,,,,,,,888,2,2021_Sep_10_1053,joplin1,2021.2.3,59.96619406
_train_cond.csv,1 0 0 0 0 0 0 0 0 1,2,categoryB,j,,,0,3,3,5,1,0,14,0,,,,,,,,,,,,,,,,,,,j,1,0.229679458,,,,,,,,,,,,,,,,,,,,,,,,,,,,,,,,,,,,888,2,2021_Sep_10_1053,joplin1,2021.2.3,59.96619406
_train_cond.csv,0 1 0 0 0 0 0 0 1 0,2,categoryB,j,,,0,3,3,5,1,1,15,1,,,,,,,,,,,,,,,,,,,j,1,0.273646375,,,,,,,,,,,,,,,,,,,,,,,,,,,,,,,,,,,,888,2,2021_Sep_10_1053,joplin1,2021.2.3,59.96619406
_train_cond.csv,1 1 1 0 1 1 0 1 1 1,8,categoryA,f,,,0,3,3,5,1,2,16,11,,,,,,,,,,,,,,,,,,,f,1,0.559920625,,,,,,,,,,,,,,,,,,,,,,,,,,,,,,,,,,,,888,2,2021_Sep_10_1053,joplin1,2021.2.3,59.96619406
_train_cond.csv,0 0 0 1 0 0 1 0 0 0,2,categoryB,j,,,0,3,3,5,1,3,17,4,,,,,,,,,,,,,,,,,,,j,1,0.383885375,,,,,,,,,,,,,,,,,,,,,,,,,,,,,,,,,,,,888,2,2021_Sep_10_1053,joplin1,2021.2.3,59.96619406
_train_cond.csv,1 1 0 1 1 1 1 0 1 1,8,categoryA,f,,,0,3,3,5,1,4,18,12,,,,,,,,,,,,,,,,,,,f,1,0.292433917,,,,,,,,,,,,,,,,,,,,,,,,,,,,,,,,,,,,888,2,2021_Sep_10_1053,joplin1,2021.2.3,59.96619406
_train_cond.csv,0 1 1 1 1 1 1 1 1 0,8,categoryA,f,,,0,3,3,5,1,5,19,7,,,,,,,,,,,,,,,,,,,f,1,0.86188875,,,,,,,,,,,,,,,,,,,,,,,,,,,,,,,,,,,,888,2,2021_Sep_10_1053,joplin1,2021.2.3,59.96619406
_train_cond.csv,1 1 0 1 0 0 1 0 1 1,6,categoryA,f,,,0,3,3,5,1,6,20,9,,,,,,,,,,,,,,,,,,,f,1,0.302252292,,,,,,,,,,,,,,,,,,,,,,,,,,,,,,,,,,,,888,2,2021_Sep_10_1053,joplin1,2021.2.3,59.96619406
_train_cond.csv,1 1 0 0 0 0 0 0 1 1,4,categoryB,j,,,0,3,3,5,1,7,21,6,,,,,,,,,,,,,,,,,,,f,0,0.396039833,,,,,,,,,,,,,,,,,,,,,,,,,,,,,,,,,,,,888,2,2021_Sep_10_1053,joplin1,2021.2.3,59.96619406
_train_cond.csv,0 0 1 1 1 1 1 1 0 0,6,categoryA,f,,,0,3,3,5,1,8,22,13,,,,,,,,,,,,,,,,,,,j,0,0.2434095,,,,,,,,,,,,,,,,,,,,,,,,,,,,,,,,,,,,888,2,2021_Sep_10_1053,joplin1,2021.2.3,59.96619406
_train_cond.csv,1 0 1 1 1 1 1 1 0 1,8,categoryA,f,,,0,3,3,5,1,9,23,8,,,,,,,,,,,,,,,,,,,f,1,0.327807667,,,,,,,,,,,,,,,,,,,,,,,,,,,,,,,,,,,,888,2,2021_Sep_10_1053,joplin1,2021.2.3,59.96619406
_train_cond.csv,0 0 1 0 0 0 0 1 0 0,2,categoryB,j,,,0,3,3,5,1,10,24,5,,,,,,,,,,,,,,,,,,,j,1,0.356868,,,,,,,,,,,,,,,,,,,,,,,,,,,,,,,,,,,,888,2,2021_Sep_10_1053,joplin1,2021.2.3,59.96619406
_train_cond.csv,0 0 0 1 1 1 1 0 0 0,4,categoryB,j,,,0,3,3,5,1,11,25,3,,,,,,,,,,,,,,,,,,,j,1,0.483969917,,,,,,,,,,,,,,,,,,,,,,,,,,,,,,,,,,,,888,2,2021_Sep_10_1053,joplin1,2021.2.3,59.96619406
_train_cond.csv,1 1 1 0 0 0 0 1 1 1,6,categoryA,f,,,0,3,3,5,1,12,26,10,,,,,,,,,,,,,,,,,,,j,0,0.422491583,,,,,,,,,,,,,,,,,,,,,,,,,,,,,,,,,,,,888,2,2021_Sep_10_1053,joplin1,2021.2.3,59.96619406
_train_cond.csv,0 0 1 0 1 1 0 1 0 0,4,categoryB,j,,,0,3,3,5,1,13,27,2,,,,,,,,,,,,,,,,,,,j,1,0.429968041,,,,,,,,,,,,,,,,,,,,,,,,,,,,,,,,,,,,888,2,2021_Sep_10_1053,joplin1,2021.2.3,59.96619406
_train_cond.csv,1 1 0 0 0 0 0 0 1 1,4,categoryB,j,,,0,3,3,5,2,0,28,6,,,,,,,,,,,,,,,,,,,f,0,0.494827041,,,,,,,,,,,,,,,,,,,,,,,,,,,,,,,,,,,,888,2,2021_Sep_10_1053,joplin1,2021.2.3,59.96619406
_train_cond.csv,1 1 1 0 0 0 0 1 1 1,6,categoryA,f,,,0,3,3,5,2,1,29,10,,,,,,,,,,,,,,,,,,,j,0,0.290600625,,,,,,,,,,,,,,,,,,,,,,,,,,,,,,,,,,,,888,2,2021_Sep_10_1053,joplin1,2021.2.3,59.96619406
_train_cond.csv,0 0 1 1 1 1 1 1 0 0,6,categoryA,f,,,0,3,3,5,2,2,30,13,,,,,,,,,,,,,,,,,,,f,1,0.405339125,,,,,,,,,,,,,,,,,,,,,,,,,,,,,,,,,,,,888,2,2021_Sep_10_1053,joplin1,2021.2.3,59.96619406
_train_cond.csv,1 0 0 0 0 0 0 0 0 1,2,categoryB,j,,,0,3,3,5,2,3,31,0,,,,,,,,,,,,,,,,,,,j,1,0.534882209,,,,,,,,,,,,,,,,,,,,,,,,,,,,,,,,,,,,888,2,2021_Sep_10_1053,joplin1,2021.2.3,59.96619406
_train_cond.csv,0 0 1 0 0 0 0 1 0 0,2,categoryB,j,,,0,3,3,5,2,4,32,5,,,,,,,,,,,,,,,,,,,f,0,0.392487667,,,,,,,,,,,,,,,,,,,,,,,,,,,,,,,,,,,,888,2,2021_Sep_10_1053,joplin1,2021.2.3,59.96619406
_train_cond.csv,1 1 0 1 0 0 1 0 1 1,6,categoryA,f,,,0,3,3,5,2,5,33,9,,,,,,,,,,,,,,,,,,,j,0,0.499141334,,,,,,,,,,,,,,,,,,,,,,,,,,,,,,,,,,,,888,2,2021_Sep_10_1053,joplin1,2021.2.3,59.96619406
_train_cond.csv,1 0 1 1 1 1 1 1 0 1,8,categoryA,f,,,0,3,3,5,2,6,34,8,,,,,,,,,,,,,,,,,,,f,1,0.420182125,,,,,,,,,,,,,,,,,,,,,,,,,,,,,,,,,,,,888,2,2021_Sep_10_1053,joplin1,2021.2.3,59.96619406
_train_cond.csv,0 0 0 1 0 0 1 0 0 0,2,categoryB,j,,,0,3,3,5,2,7,35,4,,,,,,,,,,,,,,,,,,,j,1,0.405504333,,,,,,,,,,,,,,,,,,,,,,,,,,,,,,,,,,,,888,2,2021_Sep_10_1053,joplin1,2021.2.3,59.96619406
_train_cond.csv,1 1 0 1 1 1 1 0 1 1,8,categoryA,f,,,0,3,3,5,2,8,36,12,,,,,,,,,,,,,,,,,,,j,0,0.443977667,,,,,,,,,,,,,,,,,,,,,,,,,,,,,,,,,,,,888,2,2021_Sep_10_1053,joplin1,2021.2.3,59.96619406
_train_cond.csv,0 1 0 0 0 0 0 0 1 0,2,categoryB,j,,,0,3,3,5,2,9,37,1,,,,,,,,,,,,,,,,,,,j,1,0.449576,,,,,,,,,,,,,,,,,,,,,,,,,,,,,,,,,,,,888,2,2021_Sep_10_1053,joplin1,2021.2.3,59.96619406
_train_cond.csv,0 0 1 0 1 1 0 1 0 0,4,categoryB,j,,,0,3,3,5,2,10,38,2,,,,,,,,,,,,,,,,,,,j,1,0.320324833,,,,,,,,,,,,,,,,,,,,,,,,,,,,,,,,,,,,888,2,2021_Sep_10_1053,joplin1,2021.2.3,59.96619406
_train_cond.csv,0 1 1 1 1 1 1 1 1 0,8,categoryA,f,,,0,3,3,5,2,11,39,7,,,,,,,,,,,,,,,,,,,f,1,0.307050167,,,,,,,,,,,,,,,,,,,,,,,,,,,,,,,,,,,,888,2,2021_Sep_10_1053,joplin1,2021.2.3,59.96619406
_train_cond.csv,1 1 1 0 1 1 0 1 1 1,8,categoryA,f,,,0,3,3,5,2,12,40,11,,,,,,,,,,,,,,,,,,,f,1,0.270628083,,,,,,,,,,,,,,,,,,,,,,,,,,,,,,,,,,,,888,2,2021_Sep_10_1053,joplin1,2021.2.3,59.96619406
_train_cond.csv,0 0 0 1 1 1 1 0 0 0,4,categoryB,j,,,0,3,3,5,2,13,41,3,,,,,,,,,,,,,,,,,,,j,1,0.263991625,,,,,,,,,,,,,,,,,,,,,,,,,,,,,,,,,,,,888,2,2021_Sep_10_1053,joplin1,2021.2.3,59.96619406
_train_cond.csv,,,,,,,0,3,3,5,,,,,,,,,,,,,,,,,,,,,,,,,,space,3.465464583,,,,,,,,,,,,,,,,,,,,,,,,,,,,,,,,,,888,2,2021_Sep_10_1053,joplin1,2021.2.3,59.96619406
_train_cond.csv,0 0 1 1 1 1 1 1 0 0,6,categoryA,f,,,0,4,4,6,0,0,0,13,,,,,,,,,,,,,,,,,,,j,0,0.954207833,,,,,,,,,,,,,,,,,,,,,,,,,,,,,,,,,,,,888,2,2021_Sep_10_1053,joplin1,2021.2.3,59.96619406
_train_cond.csv,0 1 0 0 0 0 0 0 1 0,2,categoryB,j,,,0,4,4,6,0,1,1,1,,,,,,,,,,,,,,,,,,,j,1,0.123354084,,,,,,,,,,,,,,,,,,,,,,,,,,,,,,,,,,,,888,2,2021_Sep_10_1053,joplin1,2021.2.3,59.96619406
_train_cond.csv,1 0 1 1 1 1 1 1 0 1,8,categoryA,f,,,0,4,4,6,0,2,2,8,,,,,,,,,,,,,,,,,,,f,1,0.081795708,,,,,,,,,,,,,,,,,,,,,,,,,,,,,,,,,,,,888,2,2021_Sep_10_1053,joplin1,2021.2.3,59.96619406
_train_cond.csv,0 0 1 0 0 0 0 1 0 0,2,categoryB,j,,,0,4,4,6,0,3,3,5,,,,,,,,,,,,,,,,,,,j,1,0.322292833,,,,,,,,,,,,,,,,,,,,,,,,,,,,,,,,,,,,888,2,2021_Sep_10_1053,joplin1,2021.2.3,59.96619406
_train_cond.csv,1 1 0 1 0 0 1 0 1 1,6,categoryA,f,,,0,4,4,6,0,4,4,9,,,,,,,,,,,,,,,,,,,j,0,0.26386125,,,,,,,,,,,,,,,,,,,,,,,,,,,,,,,,,,,,888,2,2021_Sep_10_1053,joplin1,2021.2.3,59.96619406
_train_cond.csv,1 0 0 0 0 0 0 0 0 1,2,categoryB,j,,,0,4,4,6,0,5,5,0,,,,,,,,,,,,,,,,,,,f,0,0.4341495,,,,,,,,,,,,,,,,,,,,,,,,,,,,,,,,,,,,888,2,2021_Sep_10_1053,joplin1,2021.2.3,59.96619406
_train_cond.csv,0 1 1 1 1 1 1 1 1 0,8,categoryA,f,,,0,4,4,6,0,6,6,7,,,,,,,,,,,,,,,,,,,j,0,0.31904175,,,,,,,,,,,,,,,,,,,,,,,,,,,,,,,,,,,,888,2,2021_Sep_10_1053,joplin1,2021.2.3,59.96619406
_train_cond.csv,0 0 0 1 0 0 1 0 0 0,2,categoryB,j,,,0,4,4,6,0,7,7,4,,,,,,,,,,,,,,,,,,,j,1,0.264112084,,,,,,,,,,,,,,,,,,,,,,,,,,,,,,,,,,,,888,2,2021_Sep_10_1053,joplin1,2021.2.3,59.96619406
_train_cond.csv,1 1 0 1 1 1 1 0 1 1,8,categoryA,f,,,0,4,4,6,0,8,8,12,,,,,,,,,,,,,,,,,,,f,1,0.293339084,,,,,,,,,,,,,,,,,,,,,,,,,,,,,,,,,,,,888,2,2021_Sep_10_1053,joplin1,2021.2.3,59.96619406
_train_cond.csv,1 1 0 0 0 0 0 0 1 1,4,categoryB,j,,,0,4,4,6,0,9,9,6,,,,,,,,,,,,,,,,,,,f,0,0.260353625,,,,,,,,,,,,,,,,,,,,,,,,,,,,,,,,,,,,888,2,2021_Sep_10_1053,joplin1,2021.2.3,59.96619406
_train_cond.csv,0 0 1 0 1 1 0 1 0 0,4,categoryB,j,,,0,4,4,6,0,10,10,2,,,,,,,,,,,,,,,,,,,f,0,0.522716916,,,,,,,,,,,,,,,,,,,,,,,,,,,,,,,,,,,,888,2,2021_Sep_10_1053,joplin1,2021.2.3,59.96619406
_train_cond.csv,0 0 0 1 1 1 1 0 0 0,4,categoryB,j,,,0,4,4,6,0,11,11,3,,,,,,,,,,,,,,,,,,,j,1,0.334749166,,,,,,,,,,,,,,,,,,,,,,,,,,,,,,,,,,,,888,2,2021_Sep_10_1053,joplin1,2021.2.3,59.96619406
_train_cond.csv,1 1 1 0 1 1 0 1 1 1,8,categoryA,f,,,0,4,4,6,0,12,12,11,,,,,,,,,,,,,,,,,,,f,1,0.286744083,,,,,,,,,,,,,,,,,,,,,,,,,,,,,,,,,,,,888,2,2021_Sep_10_1053,joplin1,2021.2.3,59.96619406
_train_cond.csv,1 1 1 0 0 0 0 1 1 1,6,categoryA,f,,,0,4,4,6,0,13,13,10,,,,,,,,,,,,,,,,,,,j,0,0.597594209,,,,,,,,,,,,,,,,,,,,,,,,,,,,,,,,,,,,888,2,2021_Sep_10_1053,joplin1,2021.2.3,59.96619406
_train_cond.csv,1 0 1 1 1 1 1 1 0 1,8,categoryA,f,,,0,4,4,6,1,0,14,8,,,,,,,,,,,,,,,,,,,f,1,0.043996833,,,,,,,,,,,,,,,,,,,,,,,,,,,,,,,,,,,,888,2,2021_Sep_10_1053,joplin1,2021.2.3,59.96619406
_train_cond.csv,1 1 0 1 0 0 1 0 1 1,6,categoryA,f,,,0,4,4,6,1,1,15,9,,,,,,,,,,,,,,,,,,,j,0,0.24643925,,,,,,,,,,,,,,,,,,,,,,,,,,,,,,,,,,,,888,2,2021_Sep_10_1053,joplin1,2021.2.3,59.96619406
_train_cond.csv,1 1 1 0 1 1 0 1 1 1,8,categoryA,f,,,0,4,4,6,1,2,16,11,,,,,,,,,,,,,,,,,,,f,1,0.207939208,,,,,,,,,,,,,,,,,,,,,,,,,,,,,,,,,,,,888,2,2021_Sep_10_1053,joplin1,2021.2.3,59.96619406
_train_cond.csv,0 0 1 0 1 1 0 1 0 0,4,categoryB,j,,,0,4,4,6,1,3,17,2,,,,,,,,,,,,,,,,,,,j,1,0.238462417,,,,,,,,,,,,,,,,,,,,,,,,,,,,,,,,,,,,888,2,2021_Sep_10_1053,joplin1,2021.2.3,59.96619406
_train_cond.csv,0 1 0 0 0 0 0 0 1 0,2,categoryB,j,,,0,4,4,6,1,4,18,1,,,,,,,,,,,,,,,,,,,j,1,0.09824325,,,,,,,,,,,,,,,,,,,,,,,,,,,,,,,,,,,,888,2,2021_Sep_10_1053,joplin1,2021.2.3,59.96619406
_train_cond.csv,0 1 1 1 1 1 1 1 1 0,8,categoryA,f,,,0,4,4,6,1,5,19,7,,,,,,,,,,,,,,,,,,,j,0,0.275932291,,,,,,,,,,,,,,,,,,,,,,,,,,,,,,,,,,,,888,2,2021_Sep_10_1053,joplin1,2021.2.3,59.96619406
_train_cond.csv,1 1 1 0 0 0 0 1 1 1,6,categoryA,f,,,0,4,4,6,1,6,20,10,,,,,,,,,,,,,,,,,,,f,1,0.9540855,,,,,,,,,,,,,,,,,,,,,,,,,,,,,,,,,,,,888,2,2021_Sep_10_1053,joplin1,2021.2.3,59.96619406
_train_cond.csv,0 0 0 1 0 0 1 0 0 0,2,categoryB,j,,,0,4,4,6,1,7,21,4,,,,,,,,,,,,,,,,,,,j,1,0.295779542,,,,,,,,,,,,,,,,,,,,,,,,,,,,,,,,,,,,888,2,2021_Sep_10_1053,joplin1,2021.2.3,59.96619406
_train_cond.csv,1 0 0 0 0 0 0 0 0 1,2,categoryB,j,,,0,4,4,6,1,8,22,0,,,,,,,,,,,,,,,,,,,f,0,0.747236417,,,,,,,,,,,,,,,,,,,,,,,,,,,,,,,,,,,,888,2,2021_Sep_10_1053,joplin1,2021.2.3,59.96619406
_train_cond.csv,1 1 0 0 0 0 0 0 1 1,4,categoryB,j,,,0,4,4,6,1,9,23,6,,,,,,,,,,,,,,,,,,,j,1,0.382172416,,,,,,,,,,,,,,,,,,,,,,,,,,,,,,,,,,,,888,2,2021_Sep_10_1053,joplin1,2021.2.3,59.96619406
_train_cond.csv,0 0 1 0 0 0 0 1 0 0,2,categoryB,j,,,0,4,4,6,1,10,24,5,,,,,,,,,,,,,,,,,,,f,0,0.71914825,,,,,,,,,,,,,,,,,,,,,,,,,,,,,,,,,,,,888,2,2021_Sep_10_1053,joplin1,2021.2.3,59.96619406
_train_cond.csv,1 1 0 1 1 1 1 0 1 1,8,categoryA,f,,,0,4,4,6,1,11,25,12,,,,,,,,,,,,,,,,,,,f,1,0.895147209,,,,,,,,,,,,,,,,,,,,,,,,,,,,,,,,,,,,888,2,2021_Sep_10_1053,joplin1,2021.2.3,59.96619406
_train_cond.csv,0 0 0 1 1 1 1 0 0 0,4,categoryB,j,,,0,4,4,6,1,12,26,3,,,,,,,,,,,,,,,,,,,j,1,0.398077333,,,,,,,,,,,,,,,,,,,,,,,,,,,,,,,,,,,,888,2,2021_Sep_10_1053,joplin1,2021.2.3,59.96619406
_train_cond.csv,0 0 1 1 1 1 1 1 0 0,6,categoryA,f,,,0,4,4,6,1,13,27,13,,,,,,,,,,,,,,,,,,,j,0,0.430813041,,,,,,,,,,,,,,,,,,,,,,,,,,,,,,,,,,,,888,2,2021_Sep_10_1053,joplin1,2021.2.3,59.96619406
_train_cond.csv,0 0 1 0 1 1 0 1 0 0,4,categoryB,j,,,0,4,4,6,2,0,28,2,,,,,,,,,,,,,,,,,,,f,0,0.112257958,,,,,,,,,,,,,,,,,,,,,,,,,,,,,,,,,,,,888,2,2021_Sep_10_1053,joplin1,2021.2.3,59.96619406
_train_cond.csv,1 1 0 1 0 0 1 0 1 1,6,categoryA,f,,,0,4,4,6,2,1,29,9,,,,,,,,,,,,,,,,,,,f,1,0.283825542,,,,,,,,,,,,,,,,,,,,,,,,,,,,,,,,,,,,888,2,2021_Sep_10_1053,joplin1,2021.2.3,59.96619406
_train_cond.csv,1 1 1 0 1 1 0 1 1 1,8,categoryA,f,,,0,4,4,6,2,2,30,11,,,,,,,,,,,,,,,,,,,j,0,0.476981042,,,,,,,,,,,,,,,,,,,,,,,,,,,,,,,,,,,,888,2,2021_Sep_10_1053,joplin1,2021.2.3,59.96619406
_train_cond.csv,0 0 0 1 1 1 1 0 0 0,4,categoryB,j,,,0,4,4,6,2,3,31,3,,,,,,,,,,,,,,,,,,,f,0,1.838828917,,,,,,,,,,,,,,,,,,,,,,,,,,,,,,,,,,,,888,2,2021_Sep_10_1053,joplin1,2021.2.3,59.96619406
_train_cond.csv,1 1 1 0 0 0 0 1 1 1,6,categoryA,f,,,0,4,4,6,2,4,32,10,,,,,,,,,,,,,,,,,,,f,1,0.345441,,,,,,,,,,,,,,,,,,,,,,,,,,,,,,,,,,,,888,2,2021_Sep_10_1053,joplin1,2021.2.3,59.96619406
_train_cond.csv,0 0 0 1 0 0 1 0 0 0,2,categoryB,j,,,0,4,4,6,2,5,33,4,,,,,,,,,,,,,,,,,,,j,1,0.220167584,,,,,,,,,,,,,,,,,,,,,,,,,,,,,,,,,,,,888,2,2021_Sep_10_1053,joplin1,2021.2.3,59.96619406
_train_cond.csv,0 0 1 0 0 0 0 1 0 0,2,categoryB,j,,,0,4,4,6,2,6,34,5,,,,,,,,,,,,,,,,,,,j,1,1.01219025,,,,,,,,,,,,,,,,,,,,,,,,,,,,,,,,,,,,888,2,2021_Sep_10_1053,joplin1,2021.2.3,59.96619406
_train_cond.csv,1 1 0 0 0 0 0 0 1 1,4,categoryB,j,,,0,4,4,6,2,7,35,6,,,,,,,,,,,,,,,,,,,f,0,0.827980667,,,,,,,,,,,,,,,,,,,,,,,,,,,,,,,,,,,,888,2,2021_Sep_10_1053,joplin1,2021.2.3,59.96619406
_train_cond.csv,0 1 1 1 1 1 1 1 1 0,8,categoryA,f,,,0,4,4,6,2,8,36,7,,,,,,,,,,,,,,,,,,,f,1,0.358182208,,,,,,,,,,,,,,,,,,,,,,,,,,,,,,,,,,,,888,2,2021_Sep_10_1053,joplin1,2021.2.3,59.96619406
_train_cond.csv,0 0 1 1 1 1 1 1 0 0,6,categoryA,f,,,0,4,4,6,2,9,37,13,,,,,,,,,,,,,,,,,,,j,0,0.235513666,,,,,,,,,,,,,,,,,,,,,,,,,,,,,,,,,,,,888,2,2021_Sep_10_1053,joplin1,2021.2.3,59.96619406
_train_cond.csv,1 0 0 0 0 0 0 0 0 1,2,categoryB,j,,,0,4,4,6,2,10,38,0,,,,,,,,,,,,,,,,,,,f,0,0.360378583,,,,,,,,,,,,,,,,,,,,,,,,,,,,,,,,,,,,888,2,2021_Sep_10_1053,joplin1,2021.2.3,59.96619406
_train_cond.csv,1 0 1 1 1 1 1 1 0 1,8,categoryA,f,,,0,4,4,6,2,11,39,8,,,,,,,,,,,,,,,,,,,f,1,0.286858708,,,,,,,,,,,,,,,,,,,,,,,,,,,,,,,,,,,,888,2,2021_Sep_10_1053,joplin1,2021.2.3,59.96619406
_train_cond.csv,1 1 0 1 1 1 1 0 1 1,8,categoryA,f,,,0,4,4,6,2,12,40,12,,,,,,,,,,,,,,,,,,,f,1,0.285648417,,,,,,,,,,,,,,,,,,,,,,,,,,,,,,,,,,,,888,2,2021_Sep_10_1053,joplin1,2021.2.3,59.96619406
_train_cond.csv,0 1 0 0 0 0 0 0 1 0,2,categoryB,j,,,0,4,4,6,2,13,41,1,,,,,,,,,,,,,,,,,,,j,1,0.061229708,,,,,,,,,,,,,,,,,,,,,,,,,,,,,,,,,,,,888,2,2021_Sep_10_1053,joplin1,2021.2.3,59.96619406
_train_cond.csv,,,,,,,0,4,4,6,,,,,,,,,,,,,,,,,,,,,,,,,,space,1.559966625,,,,,,,,,,,,,,,,,,,,,,,,,,,,,,,,,,888,2,2021_Sep_10_1053,joplin1,2021.2.3,59.96619406
_train_cond.csv,1 1 1 0 0 0 0 1 1 1,6,categoryA,f,,,0,5,5,1,0,0,0,10,,,,,,,,,,,,,,,,,,,f,1,0.479195042,,,,,,,,,,,,,,,,,,,,,,,,,,,,,,,,,,,,888,2,2021_Sep_10_1053,joplin1,2021.2.3,59.96619406
_train_cond.csv,1 0 0 0 0 0 0 0 0 1,2,categoryB,j,,,0,5,5,1,0,1,1,0,,,,,,,,,,,,,,,,,,,j,1,0.266207875,,,,,,,,,,,,,,,,,,,,,,,,,,,,,,,,,,,,888,2,2021_Sep_10_1053,joplin1,2021.2.3,59.96619406
_train_cond.csv,0 0 0 1 1 1 1 0 0 0,4,categoryB,j,,,0,5,5,1,0,2,2,3,,,,,,,,,,,,,,,,,,,j,1,0.257650791,,,,,,,,,,,,,,,,,,,,,,,,,,,,,,,,,,,,888,2,2021_Sep_10_1053,joplin1,2021.2.3,59.96619406
_train_cond.csv,0 0 0 1 0 0 1 0 0 0,2,categoryB,j,,,0,5,5,1,0,3,3,4,,,,,,,,,,,,,,,,,,,j,1,0.330164625,,,,,,,,,,,,,,,,,,,,,,,,,,,,,,,,,,,,888,2,2021_Sep_10_1053,joplin1,2021.2.3,59.96619406
_train_cond.csv,0 1 0 0 0 0 0 0 1 0,2,categoryB,j,,,0,5,5,1,0,4,4,1,,,,,,,,,,,,,,,,,,,j,1,0.175396125,,,,,,,,,,,,,,,,,,,,,,,,,,,,,,,,,,,,888,2,2021_Sep_10_1053,joplin1,2021.2.3,59.96619406
_train_cond.csv,0 0 1 0 1 1 0 1 0 0,4,categoryB,j,,,0,5,5,1,0,5,5,2,,,,,,,,,,,,,,,,,,,f,0,0.202385458,,,,,,,,,,,,,,,,,,,,,,,,,,,,,,,,,,,,888,2,2021_Sep_10_1053,joplin1,2021.2.3,59.96619406
_train_cond.csv,1 1 0 1 0 0 1 0 1 1,6,categoryA,f,,,0,5,5,1,0,6,6,9,,,,,,,,,,,,,,,,,,,j,0,0.18098475,,,,,,,,,,,,,,,,,,,,,,,,,,,,,,,,,,,,888,2,2021_Sep_10_1053,joplin1,2021.2.3,59.96619406
_train_cond.csv,1 1 0 0 0 0 0 0 1 1,4,categoryB,j,,,0,5,5,1,0,7,7,6,,,,,,,,,,,,,,,,,,,f,0,0.348722834,,,,,,,,,,,,,,,,,,,,,,,,,,,,,,,,,,,,888,2,2021_Sep_10_1053,joplin1,2021.2.3,59.96619406
_train_cond.csv,0 0 1 1 1 1 1 1 0 0,6,categoryA,f,,,0,5,5,1,0,8,8,13,,,,,,,,,,,,,,,,,,,f,1,0.735798583,,,,,,,,,,,,,,,,,,,,,,,,,,,,,,,,,,,,888,2,2021_Sep_10_1053,joplin1,2021.2.3,59.96619406
_train_cond.csv,1 1 1 0 1 1 0 1 1 1,8,categoryA,f,,,0,5,5,1,0,9,9,11,,,,,,,,,,,,,,,,,,,f,1,0.271071667,,,,,,,,,,,,,,,,,,,,,,,,,,,,,,,,,,,,888,2,2021_Sep_10_1053,joplin1,2021.2.3,59.96619406
_train_cond.csv,1 1 0 1 1 1 1 0 1 1,8,categoryA,f,,,0,5,5,1,0,10,10,12,,,,,,,,,,,,,,,,,,,j,0,0.188267375,,,,,,,,,,,,,,,,,,,,,,,,,,,,,,,,,,,,888,2,2021_Sep_10_1053,joplin1,2021.2.3,59.96619406
_train_cond.csv,0 0 1 0 0 0 0 1 0 0,2,categoryB,j,,,0,5,5,1,0,11,11,5,,,,,,,,,,,,,,,,,,,f,0,0.802588375,,,,,,,,,,,,,,,,,,,,,,,,,,,,,,,,,,,,888,2,2021_Sep_10_1053,joplin1,2021.2.3,59.96619406
_train_cond.csv,1 0 1 1 1 1 1 1 0 1,8,categoryA,f,,,0,5,5,1,0,12,12,8,,,,,,,,,,,,,,,,,,,f,1,0.152000834,,,,,,,,,,,,,,,,,,,,,,,,,,,,,,,,,,,,888,2,2021_Sep_10_1053,joplin1,2021.2.3,59.96619406
_train_cond.csv,0 1 1 1 1 1 1 1 1 0,8,categoryA,f,,,0,5,5,1,0,13,13,7,,,,,,,,,,,,,,,,,,,f,1,0.335122833,,,,,,,,,,,,,,,,,,,,,,,,,,,,,,,,,,,,888,2,2021_Sep_10_1053,joplin1,2021.2.3,59.96619406
_train_cond.csv,0 1 1 1 1 1 1 1 1 0,8,categoryA,f,,,0,5,5,1,1,0,14,7,,,,,,,,,,,,,,,,,,,f,1,0.376658458,,,,,,,,,,,,,,,,,,,,,,,,,,,,,,,,,,,,888,2,2021_Sep_10_1053,joplin1,2021.2.3,59.96619406
_train_cond.csv,1 1 0 1 0 0 1 0 1 1,6,categoryA,f,,,0,5,5,1,1,1,15,9,,,,,,,,,,,,,,,,,,,j,0,0.1950285,,,,,,,,,,,,,,,,,,,,,,,,,,,,,,,,,,,,888,2,2021_Sep_10_1053,joplin1,2021.2.3,59.96619406
_train_cond.csv,1 0 1 1 1 1 1 1 0 1,8,categoryA,f,,,0,5,5,1,1,2,16,8,,,,,,,,,,,,,,,,,,,f,1,0.060757375,,,,,,,,,,,,,,,,,,,,,,,,,,,,,,,,,,,,888,2,2021_Sep_10_1053,joplin1,2021.2.3,59.96619406
_train_cond.csv,0 0 1 1 1 1 1 1 0 0,6,categoryA,f,,,0,5,5,1,1,3,17,13,,,,,,,,,,,,,,,,,,,f,1,0.641877375,,,,,,,,,,,,,,,,,,,,,,,,,,,,,,,,,,,,888,2,2021_Sep_10_1053,joplin1,2021.2.3,59.96619406
_train_cond.csv,1 1 0 1 1 1 1 0 1 1,8,categoryA,f,,,0,5,5,1,1,4,18,12,,,,,,,,,,,,,,,,,,,j,0,0.327783709,,,,,,,,,,,,,,,,,,,,,,,,,,,,,,,,,,,,888,2,2021_Sep_10_1053,joplin1,2021.2.3,59.96619406
_train_cond.csv,1 1 1 0 0 0 0 1 1 1,6,categoryA,f,,,0,5,5,1,1,5,19,10,,,,,,,,,,,,,,,,,,,f,1,0.4888895,,,,,,,,,,,,,,,,,,,,,,,,,,,,,,,,,,,,888,2,2021_Sep_10_1053,joplin1,2021.2.3,59.96619406
_train_cond.csv,0 0 1 0 1 1 0 1 0 0,4,categoryB,j,,,0,5,5,1,1,6,20,2,,,,,,,,,,,,,,,,,,,f,0,0.732888167,,,,,,,,,,,,,,,,,,,,,,,,,,,,,,,,,,,,888,2,2021_Sep_10_1053,joplin1,2021.2.3,59.96619406
_train_cond.csv,0 0 0 1 0 0 1 0 0 0,2,categoryB,j,,,0,5,5,1,1,7,21,4,,,,,,,,,,,,,,,,,,,j,1,0.332863041,,,,,,,,,,,,,,,,,,,,,,,,,,,,,,,,,,,,888,2,2021_Sep_10_1053,joplin1,2021.2.3,59.96619406
_train_cond.csv,1 0 0 0 0 0 0 0 0 1,2,categoryB,j,,,0,5,5,1,1,8,22,0,,,,,,,,,,,,,,,,,,,j,1,0.736431958,,,,,,,,,,,,,,,,,,,,,,,,,,,,,,,,,,,,888,2,2021_Sep_10_1053,joplin1,2021.2.3,59.96619406
_train_cond.csv,1 1 1 0 1 1 0 1 1 1,8,categoryA,f,,,0,5,5,1,1,9,23,11,,,,,,,,,,,,,,,,,,,f,1,1.11206575,,,,,,,,,,,,,,,,,,,,,,,,,,,,,,,,,,,,888,2,2021_Sep_10_1053,joplin1,2021.2.3,59.96619406
_train_cond.csv,0 0 0 1 1 1 1 0 0 0,4,categoryB,j,,,0,5,5,1,1,10,24,3,,,,,,,,,,,,,,,,,,,j,1,0.533888792,,,,,,,,,,,,,,,,,,,,,,,,,,,,,,,,,,,,888,2,2021_Sep_10_1053,joplin1,2021.2.3,59.96619406
_train_cond.csv,1 1 0 0 0 0 0 0 1 1,4,categoryB,j,,,0,5,5,1,1,11,25,6,,,,,,,,,,,,,,,,,,,j,1,0.587586458,,,,,,,,,,,,,,,,,,,,,,,,,,,,,,,,,,,,888,2,2021_Sep_10_1053,joplin1,2021.2.3,59.96619406
_train_cond.csv,0 0 1 0 0 0 0 1 0 0,2,categoryB,j,,,0,5,5,1,1,12,26,5,,,,,,,,,,,,,,,,,,,f,0,0.59024825,,,,,,,,,,,,,,,,,,,,,,,,,,,,,,,,,,,,888,2,2021_Sep_10_1053,joplin1,2021.2.3,59.96619406
_train_cond.csv,0 1 0 0 0 0 0 0 1 0,2,categoryB,j,,,0,5,5,1,1,13,27,1,,,,,,,,,,,,,,,,,,,j,1,0.261948083,,,,,,,,,,,,,,,,,,,,,,,,,,,,,,,,,,,,888,2,2021_Sep_10_1053,joplin1,2021.2.3,59.96619406
_train_cond.csv,0 0 0 1 0 0 1 0 0 0,2,categoryB,j,,,0,5,5,1,2,0,28,4,,,,,,,,,,,,,,,,,,,j,1,0.306413625,,,,,,,,,,,,,,,,,,,,,,,,,,,,,,,,,,,,888,2,2021_Sep_10_1053,joplin1,2021.2.3,59.96619406
_train_cond.csv,0 1 0 0 0 0 0 0 1 0,2,categoryB,j,,,0,5,5,1,2,1,29,1,,,,,,,,,,,,,,,,,,,j,1,0.305909333,,,,,,,,,,,,,,,,,,,,,,,,,,,,,,,,,,,,888,2,2021_Sep_10_1053,joplin1,2021.2.3,59.96619406
_train_cond.csv,1 0 1 1 1 1 1 1 0 1,8,categoryA,f,,,0,5,5,1,2,2,30,8,,,,,,,,,,,,,,,,,,,f,1,0.168538917,,,,,,,,,,,,,,,,,,,,,,,,,,,,,,,,,,,,888,2,2021_Sep_10_1053,joplin1,2021.2.3,59.96619406
_train_cond.csv,1 1 0 0 0 0 0 0 1 1,4,categoryB,j,,,0,5,5,1,2,3,31,6,,,,,,,,,,,,,,,,,,,j,1,0.238886542,,,,,,,,,,,,,,,,,,,,,,,,,,,,,,,,,,,,888,2,2021_Sep_10_1053,joplin1,2021.2.3,59.96619406
_train_cond.csv,1 1 1 0 1 1 0 1 1 1,8,categoryA,f,,,0,5,5,1,2,4,32,11,,,,,,,,,,,,,,,,,,,f,1,0.279137458,,,,,,,,,,,,,,,,,,,,,,,,,,,,,,,,,,,,888,2,2021_Sep_10_1053,joplin1,2021.2.3,59.96619406
_train_cond.csv,1 1 1 0 0 0 0 1 1 1,6,categoryA,f,,,0,5,5,1,2,5,33,10,,,,,,,,,,,,,,,,,,,j,0,0.206556208,,,,,,,,,,,,,,,,,,,,,,,,,,,,,,,,,,,,888,2,2021_Sep_10_1053,joplin1,2021.2.3,59.96619406
_train_cond.csv,1 0 0 0 0 0 0 0 0 1,2,categoryB,j,,,0,5,5,1,2,6,34,0,,,,,,,,,,,,,,,,,,,j,1,0.278250833,,,,,,,,,,,,,,,,,,,,,,,,,,,,,,,,,,,,888,2,2021_Sep_10_1053,joplin1,2021.2.3,59.96619406
_train_cond.csv,1 1 0 1 0 0 1 0 1 1,6,categoryA,f,,,0,5,5,1,2,7,35,9,,,,,,,,,,,,,,,,,,,j,0,0.726123,,,,,,,,,,,,,,,,,,,,,,,,,,,,,,,,,,,,888,2,2021_Sep_10_1053,joplin1,2021.2.3,59.96619406
_train_cond.csv,0 0 1 0 1 1 0 1 0 0,4,categoryB,j,,,0,5,5,1,2,8,36,2,,,,,,,,,,,,,,,,,,,j,1,0.248413208,,,,,,,,,,,,,,,,,,,,,,,,,,,,,,,,,,,,888,2,2021_Sep_10_1053,joplin1,2021.2.3,59.96619406
_train_cond.csv,0 0 1 1 1 1 1 1 0 0,6,categoryA,f,,,0,5,5,1,2,9,37,13,,,,,,,,,,,,,,,,,,,j,0,0.3131325,,,,,,,,,,,,,,,,,,,,,,,,,,,,,,,,,,,,888,2,2021_Sep_10_1053,joplin1,2021.2.3,59.96619406
_train_cond.csv,1 1 0 1 1 1 1 0 1 1,8,categoryA,f,,,0,5,5,1,2,10,38,12,,,,,,,,,,,,,,,,,,,j,0,0.284091459,,,,,,,,,,,,,,,,,,,,,,,,,,,,,,,,,,,,888,2,2021_Sep_10_1053,joplin1,2021.2.3,59.96619406
_train_cond.csv,0 0 0 1 1 1 1 0 0 0,4,categoryB,j,,,0,5,5,1,2,11,39,3,,,,,,,,,,,,,,,,,,,j,1,0.20877825,,,,,,,,,,,,,,,,,,,,,,,,,,,,,,,,,,,,888,2,2021_Sep_10_1053,joplin1,2021.2.3,59.96619406
_train_cond.csv,0 1 1 1 1 1 1 1 1 0,8,categoryA,f,,,0,5,5,1,2,12,40,7,,,,,,,,,,,,,,,,,,,f,1,0.250284792,,,,,,,,,,,,,,,,,,,,,,,,,,,,,,,,,,,,888,2,2021_Sep_10_1053,joplin1,2021.2.3,59.96619406
_train_cond.csv,0 0 1 0 0 0 0 1 0 0,2,categoryB,j,,,0,5,5,1,2,13,41,5,,,,,,,,,,,,,,,,,,,j,1,0.058669917,,,,,,,,,,,,,,,,,,,,,,,,,,,,,,,,,,,,888,2,2021_Sep_10_1053,joplin1,2021.2.3,59.96619406
_train_cond.csv,,,,,,,0,5,5,1,,,,,,,,,,,,,,,,,,,,,,,,,,space,1.319909208,,,,,,,,,,,,,,,,,,,,,,,,,,,,,,,,,,888,2,2021_Sep_10_1053,joplin1,2021.2.3,59.96619406
_train_cond.csv,0 0 1 0 0 0 0 1 0 0,2,categoryB,j,,,0,6,6,2,0,0,0,5,,,,,,,,,,,,,,,,,,,f,0,0.315872291,,,,,,,,,,,,,,,,,,,,,,,,,,,,,,,,,,,,888,2,2021_Sep_10_1053,joplin1,2021.2.3,59.96619406
_train_cond.csv,0 1 1 1 1 1 1 1 1 0,8,categoryA,f,,,0,6,6,2,0,1,1,7,,,,,,,,,,,,,,,,,,,f,1,0.228277292,,,,,,,,,,,,,,,,,,,,,,,,,,,,,,,,,,,,888,2,2021_Sep_10_1053,joplin1,2021.2.3,59.96619406
_train_cond.csv,0 0 1 1 1 1 1 1 0 0,6,categoryA,f,,,0,6,6,2,0,2,2,13,,,,,,,,,,,,,,,,,,,f,1,0.707864,,,,,,,,,,,,,,,,,,,,,,,,,,,,,,,,,,,,888,2,2021_Sep_10_1053,joplin1,2021.2.3,59.96619406
_train_cond.csv,0 1 0 0 0 0 0 0 1 0,2,categoryB,j,,,0,6,6,2,0,3,3,1,,,,,,,,,,,,,,,,,,,j,1,0.114588541,,,,,,,,,,,,,,,,,,,,,,,,,,,,,,,,,,,,888,2,2021_Sep_10_1053,joplin1,2021.2.3,59.96619406
_train_cond.csv,1 1 0 1 0 0 1 0 1 1,6,categoryA,f,,,0,6,6,2,0,4,4,9,,,,,,,,,,,,,,,,,,,f,1,0.522558291,,,,,,,,,,,,,,,,,,,,,,,,,,,,,,,,,,,,888,2,2021_Sep_10_1053,joplin1,2021.2.3,59.96619406
_train_cond.csv,1 1 0 0 0 0 0 0 1 1,4,categoryB,j,,,0,6,6,2,0,5,5,6,,,,,,,,,,,,,,,,,,,j,1,0.419635542,,,,,,,,,,,,,,,,,,,,,,,,,,,,,,,,,,,,888,2,2021_Sep_10_1053,joplin1,2021.2.3,59.96619406
_train_cond.csv,1 0 1 1 1 1 1 1 0 1,8,categoryA,f,,,0,6,6,2,0,6,6,8,,,,,,,,,,,,,,,,,,,f,1,0.356297375,,,,,,,,,,,,,,,,,,,,,,,,,,,,,,,,,,,,888,2,2021_Sep_10_1053,joplin1,2021.2.3,59.96619406
_train_cond.csv,1 1 1 0 0 0 0 1 1 1,6,categoryA,f,,,0,6,6,2,0,7,7,10,,,,,,,,,,,,,,,,,,,f,1,0.450933833,,,,,,,,,,,,,,,,,,,,,,,,,,,,,,,,,,,,888,2,2021_Sep_10_1053,joplin1,2021.2.3,59.96619406
_train_cond.csv,1 1 0 1 1 1 1 0 1 1,8,categoryA,f,,,0,6,6,2,0,8,8,12,,,,,,,,,,,,,,,,,,,j,0,0.131998,,,,,,,,,,,,,,,,,,,,,,,,,,,,,,,,,,,,888,2,2021_Sep_10_1053,joplin1,2021.2.3,59.96619406
_train_cond.csv,1 0 0 0 0 0 0 0 0 1,2,categoryB,j,,,0,6,6,2,0,9,9,0,,,,,,,,,,,,,,,,,,,j,1,0.262817208,,,,,,,,,,,,,,,,,,,,,,,,,,,,,,,,,,,,888,2,2021_Sep_10_1053,joplin1,2021.2.3,59.96619406
_train_cond.csv,0 0 0 1 0 0 1 0 0 0,2,categoryB,j,,,0,6,6,2,0,10,10,4,,,,,,,,,,,,,,,,,,,j,1,0.310159333,,,,,,,,,,,,,,,,,,,,,,,,,,,,,,,,,,,,888,2,2021_Sep_10_1053,joplin1,2021.2.3,59.96619406
_train_cond.csv,1 1 1 0 1 1 0 1 1 1,8,categoryA,f,,,0,6,6,2,0,11,11,11,,,,,,,,,,,,,,,,,,,f,1,0.287244,,,,,,,,,,,,,,,,,,,,,,,,,,,,,,,,,,,,888,2,2021_Sep_10_1053,joplin1,2021.2.3,59.96619406
_train_cond.csv,0 0 0 1 1 1 1 0 0 0,4,categoryB,j,,,0,6,6,2,0,12,12,3,,,,,,,,,,,,,,,,,,,j,1,0.404038417,,,,,,,,,,,,,,,,,,,,,,,,,,,,,,,,,,,,888,2,2021_Sep_10_1053,joplin1,2021.2.3,59.96619406
_train_cond.csv,0 0 1 0 1 1 0 1 0 0,4,categoryB,j,,,0,6,6,2,0,13,13,2,,,,,,,,,,,,,,,,,,,f,0,0.24235225,,,,,,,,,,,,,,,,,,,,,,,,,,,,,,,,,,,,888,2,2021_Sep_10_1053,joplin1,2021.2.3,59.96619406
_train_cond.csv,0 0 1 0 1 1 0 1 0 0,4,categoryB,j,,,0,6,6,2,1,0,14,2,,,,,,,,,,,,,,,,,,,f,0,0.8055785,,,,,,,,,,,,,,,,,,,,,,,,,,,,,,,,,,,,888,2,2021_Sep_10_1053,joplin1,2021.2.3,59.96619406
_train_cond.csv,0 1 0 0 0 0 0 0 1 0,2,categoryB,j,,,0,6,6,2,1,1,15,1,,,,,,,,,,,,,,,,,,,j,1,0.237821333,,,,,,,,,,,,,,,,,,,,,,,,,,,,,,,,,,,,888,2,2021_Sep_10_1053,joplin1,2021.2.3,59.96619406
_train_cond.csv,1 1 0 0 0 0 0 0 1 1,4,categoryB,j,,,0,6,6,2,1,2,16,6,,,,,,,,,,,,,,,,,,,j,1,0.218783042,,,,,,,,,,,,,,,,,,,,,,,,,,,,,,,,,,,,888,2,2021_Sep_10_1053,joplin1,2021.2.3,59.96619406
_train_cond.csv,1 1 1 0 1 1 0 1 1 1,8,categoryA,f,,,0,6,6,2,1,3,17,11,,,,,,,,,,,,,,,,,,,f,1,0.194851125,,,,,,,,,,,,,,,,,,,,,,,,,,,,,,,,,,,,888,2,2021_Sep_10_1053,joplin1,2021.2.3,59.96619406
_train_cond.csv,1 0 0 0 0 0 0 0 0 1,2,categoryB,j,,,0,6,6,2,1,4,18,0,,,,,,,,,,,,,,,,,,,j,1,0.442355458,,,,,,,,,,,,,,,,,,,,,,,,,,,,,,,,,,,,888,2,2021_Sep_10_1053,joplin1,2021.2.3,59.96619406
_train_cond.csv,1 1 0 1 0 0 1 0 1 1,6,categoryA,f,,,0,6,6,2,1,5,19,9,,,,,,,,,,,,,,,,,,,f,1,0.942670958,,,,,,,,,,,,,,,,,,,,,,,,,,,,,,,,,,,,888,2,2021_Sep_10_1053,joplin1,2021.2.3,59.96619406
_train_cond.csv,0 1 1 1 1 1 1 1 1 0,8,categoryA,f,,,0,6,6,2,1,6,20,7,,,,,,,,,,,,,,,,,,,f,1,0.181983375,,,,,,,,,,,,,,,,,,,,,,,,,,,,,,,,,,,,888,2,2021_Sep_10_1053,joplin1,2021.2.3,59.96619406
_train_cond.csv,1 1 0 1 1 1 1 0 1 1,8,categoryA,f,,,0,6,6,2,1,7,21,12,,,,,,,,,,,,,,,,,,,j,0,0.638361417,,,,,,,,,,,,,,,,,,,,,,,,,,,,,,,,,,,,888,2,2021_Sep_10_1053,joplin1,2021.2.3,59.96619406
_train_cond.csv,1 0 1 1 1 1 1 1 0 1,8,categoryA,f,,,0,6,6,2,1,8,22,8,,,,,,,,,,,,,,,,,,,f,1,0.172435958,,,,,,,,,,,,,,,,,,,,,,,,,,,,,,,,,,,,888,2,2021_Sep_10_1053,joplin1,2021.2.3,59.96619406
_train_cond.csv,0 0 0 1 1 1 1 0 0 0,4,categoryB,j,,,0,6,6,2,1,9,23,3,,,,,,,,,,,,,,,,,,,j,1,0.689824916,,,,,,,,,,,,,,,,,,,,,,,,,,,,,,,,,,,,888,2,2021_Sep_10_1053,joplin1,2021.2.3,59.96619406
_train_cond.csv,1 1 1 0 0 0 0 1 1 1,6,categoryA,f,,,0,6,6,2,1,10,24,10,,,,,,,,,,,,,,,,,,,f,1,0.696656083,,,,,,,,,,,,,,,,,,,,,,,,,,,,,,,,,,,,888,2,2021_Sep_10_1053,joplin1,2021.2.3,59.96619406
_train_cond.csv,0 0 1 1 1 1 1 1 0 0,6,categoryA,f,,,0,6,6,2,1,11,25,13,,,,,,,,,,,,,,,,,,,f,1,0.319527584,,,,,,,,,,,,,,,,,,,,,,,,,,,,,,,,,,,,888,2,2021_Sep_10_1053,joplin1,2021.2.3,59.96619406
_train_cond.csv,0 0 0 1 0 0 1 0 0 0,2,categoryB,j,,,0,6,6,2,1,12,26,4,,,,,,,,,,,,,,,,,,,j,1,0.940592958,,,,,,,,,,,,,,,,,,,,,,,,,,,,,,,,,,,,888,2,2021_Sep_10_1053,joplin1,2021.2.3,59.96619406
_train_cond.csv,0 0 1 0 0 0 0 1 0 0,2,categoryB,j,,,0,6,6,2,1,13,27,5,,,,,,,,,,,,,,,,,,,j,1,0.46778775,,,,,,,,,,,,,,,,,,,,,,,,,,,,,,,,,,,,888,2,2021_Sep_10_1053,joplin1,2021.2.3,59.96619406
_train_cond.csv,1 1 1 0 1 1 0 1 1 1,8,categoryA,f,,,0,6,6,2,2,0,28,11,,,,,,,,,,,,,,,,,,,f,1,0.39609975,,,,,,,,,,,,,,,,,,,,,,,,,,,,,,,,,,,,888,2,2021_Sep_10_1053,joplin1,2021.2.3,59.96619406
_train_cond.csv,0 0 0 1 1 1 1 0 0 0,4,categoryB,j,,,0,6,6,2,2,1,29,3,,,,,,,,,,,,,,,,,,,f,0,0.931980583,,,,,,,,,,,,,,,,,,,,,,,,,,,,,,,,,,,,888,2,2021_Sep_10_1053,joplin1,2021.2.3,59.96619406
_train_cond.csv,1 0 1 1 1 1 1 1 0 1,8,categoryA,f,,,0,6,6,2,2,2,30,8,,,,,,,,,,,,,,,,,,,f,1,0.544534541,,,,,,,,,,,,,,,,,,,,,,,,,,,,,,,,,,,,888,2,2021_Sep_10_1053,joplin1,2021.2.3,59.96619406
_train_cond.csv,1 0 0 0 0 0 0 0 0 1,2,categoryB,j,,,0,6,6,2,2,3,31,0,,,,,,,,,,,,,,,,,,,j,1,0.320491,,,,,,,,,,,,,,,,,,,,,,,,,,,,,,,,,,,,888,2,2021_Sep_10_1053,joplin1,2021.2.3,59.96619406
_train_cond.csv,0 0 1 0 0 0 0 1 0 0,2,categoryB,j,,,0,6,6,2,2,4,32,5,,,,,,,,,,,,,,,,,,,f,0,0.26625275,,,,,,,,,,,,,,,,,,,,,,,,,,,,,,,,,,,,888,2,2021_Sep_10_1053,joplin1,2021.2.3,59.96619406
_train_cond.csv,1 1 0 0 0 0 0 0 1 1,4,categoryB,j,,,0,6,6,2,2,5,33,6,,,,,,,,,,,,,,,,,,,j,1,0.213365625,,,,,,,,,,,,,,,,,,,,,,,,,,,,,,,,,,,,888,2,2021_Sep_10_1053,joplin1,2021.2.3,59.96619406
_train_cond.csv,0 0 1 1 1 1 1 1 0 0,6,categoryA,f,,,0,6,6,2,2,6,34,13,,,,,,,,,,,,,,,,,,,j,0,0.2388705,,,,,,,,,,,,,,,,,,,,,,,,,,,,,,,,,,,,888,2,2021_Sep_10_1053,joplin1,2021.2.3,59.96619406
_train_cond.csv,1 1 0 1 1 1 1 0 1 1,8,categoryA,f,,,0,6,6,2,2,7,35,12,,,,,,,,,,,,,,,,,,,f,1,1.573002167,,,,,,,,,,,,,,,,,,,,,,,,,,,,,,,,,,,,888,2,2021_Sep_10_1053,joplin1,2021.2.3,59.96619406
_train_cond.csv,1 1 1 0 0 0 0 1 1 1,6,categoryA,f,,,0,6,6,2,2,8,36,10,,,,,,,,,,,,,,,,,,,f,1,0.317464,,,,,,,,,,,,,,,,,,,,,,,,,,,,,,,,,,,,888,2,2021_Sep_10_1053,joplin1,2021.2.3,59.96619406
_train_cond.csv,0 1 1 1 1 1 1 1 1 0,8,categoryA,f,,,0,6,6,2,2,9,37,7,,,,,,,,,,,,,,,,,,,f,1,0.362033084,,,,,,,,,,,,,,,,,,,,,,,,,,,,,,,,,,,,888,2,2021_Sep_10_1053,joplin1,2021.2.3,59.96619406
_train_cond.csv,0 0 0 1 0 0 1 0 0 0,2,categoryB,j,,,0,6,6,2,2,10,38,4,,,,,,,,,,,,,,,,,,,j,1,0.266765042,,,,,,,,,,,,,,,,,,,,,,,,,,,,,,,,,,,,888,2,2021_Sep_10_1053,joplin1,2021.2.3,59.96619406
_train_cond.csv,0 1 0 0 0 0 0 0 1 0,2,categoryB,j,,,0,6,6,2,2,11,39,1,,,,,,,,,,,,,,,,,,,j,1,0.264889292,,,,,,,,,,,,,,,,,,,,,,,,,,,,,,,,,,,,888,2,2021_Sep_10_1053,joplin1,2021.2.3,59.96619406
_train_cond.csv,0 0 1 0 1 1 0 1 0 0,4,categoryB,j,,,0,6,6,2,2,12,40,2,,,,,,,,,,,,,,,,,,,j,1,0.407499416,,,,,,,,,,,,,,,,,,,,,,,,,,,,,,,,,,,,888,2,2021_Sep_10_1053,joplin1,2021.2.3,59.96619406
_train_cond.csv,1 1 0 1 0 0 1 0 1 1,6,categoryA,f,,,0,6,6,2,2,13,41,9,,,,,,,,,,,,,,,,,,,j,0,0.245028791,,,,,,,,,,,,,,,,,,,,,,,,,,,,,,,,,,,,888,2,2021_Sep_10_1053,joplin1,2021.2.3,59.96619406
_train_cond.csv,,,,,,,0,6,6,2,,,,,,,,,,,,,,,,,,,,,,,,,,space,0.967337375,,,,,,,,,,,,,,,,,,,,,,,,,,,,,,,,,,888,2,2021_Sep_10_1053,joplin1,2021.2.3,59.96619406
_train_cond.csv,0 0 0 1 0 0 1 0 0 0,2,categoryB,j,,,0,7,7,0,0,0,0,4,,,,,,,,,,,,,,,,,,,j,1,0.572014208,,,,,,,,,,,,,,,,,,,,,,,,,,,,,,,,,,,,888,2,2021_Sep_10_1053,joplin1,2021.2.3,59.96619406
_train_cond.csv,1 1 1 0 1 1 0 1 1 1,8,categoryA,f,,,0,7,7,0,0,1,1,11,,,,,,,,,,,,,,,,,,,f,1,0.251909875,,,,,,,,,,,,,,,,,,,,,,,,,,,,,,,,,,,,888,2,2021_Sep_10_1053,joplin1,2021.2.3,59.96619406
_train_cond.csv,0 0 0 1 1 1 1 0 0 0,4,categoryB,j,,,0,7,7,0,0,2,2,3,,,,,,,,,,,,,,,,,,,j,1,0.487668834,,,,,,,,,,,,,,,,,,,,,,,,,,,,,,,,,,,,888,2,2021_Sep_10_1053,joplin1,2021.2.3,59.96619406
_train_cond.csv,0 1 1 1 1 1 1 1 1 0,8,categoryA,f,,,0,7,7,0,0,3,3,7,,,,,,,,,,,,,,,,,,,f,1,0.250031792,,,,,,,,,,,,,,,,,,,,,,,,,,,,,,,,,,,,888,2,2021_Sep_10_1053,joplin1,2021.2.3,59.96619406
_train_cond.csv,1 0 1 1 1 1 1 1 0 1,8,categoryA,f,,,0,7,7,0,0,4,4,8,,,,,,,,,,,,,,,,,,,f,1,0.268676458,,,,,,,,,,,,,,,,,,,,,,,,,,,,,,,,,,,,888,2,2021_Sep_10_1053,joplin1,2021.2.3,59.96619406
_train_cond.csv,0 0 1 0 1 1 0 1 0 0,4,categoryB,j,,,0,7,7,0,0,5,5,2,,,,,,,,,,,,,,,,,,,f,0,0.793436375,,,,,,,,,,,,,,,,,,,,,,,,,,,,,,,,,,,,888,2,2021_Sep_10_1053,joplin1,2021.2.3,59.96619406
_train_cond.csv,0 1 0 0 0 0 0 0 1 0,2,categoryB,j,,,0,7,7,0,0,6,6,1,,,,,,,,,,,,,,,,,,,j,1,0.024629708,,,,,,,,,,,,,,,,,,,,,,,,,,,,,,,,,,,,888,2,2021_Sep_10_1053,joplin1,2021.2.3,59.96619406
_train_cond.csv,1 1 0 1 1 1 1 0 1 1,8,categoryA,f,,,0,7,7,0,0,7,7,12,,,,,,,,,,,,,,,,,,,j,0,0.268227333,,,,,,,,,,,,,,,,,,,,,,,,,,,,,,,,,,,,888,2,2021_Sep_10_1053,joplin1,2021.2.3,59.96619406
_train_cond.csv,1 1 1 0 0 0 0 1 1 1,6,categoryA,f,,,0,7,7,0,0,8,8,10,,,,,,,,,,,,,,,,,,,f,1,0.346104,,,,,,,,,,,,,,,,,,,,,,,,,,,,,,,,,,,,888,2,2021_Sep_10_1053,joplin1,2021.2.3,59.96619406
_train_cond.csv,1 0 0 0 0 0 0 0 0 1,2,categoryB,j,,,0,7,7,0,0,9,9,0,,,,,,,,,,,,,,,,,,,j,1,0.354595375,,,,,,,,,,,,,,,,,,,,,,,,,,,,,,,,,,,,888,2,2021_Sep_10_1053,joplin1,2021.2.3,59.96619406
_train_cond.csv,1 1 0 1 0 0 1 0 1 1,6,categoryA,f,,,0,7,7,0,0,10,10,9,,,,,,,,,,,,,,,,,,,f,1,0.443432417,,,,,,,,,,,,,,,,,,,,,,,,,,,,,,,,,,,,888,2,2021_Sep_10_1053,joplin1,2021.2.3,59.96619406
_train_cond.csv,1 1 0 0 0 0 0 0 1 1,4,categoryB,j,,,0,7,7,0,0,11,11,6,,,,,,,,,,,,,,,,,,,j,1,0.280082583,,,,,,,,,,,,,,,,,,,,,,,,,,,,,,,,,,,,888,2,2021_Sep_10_1053,joplin1,2021.2.3,59.96619406
_train_cond.csv,0 0 1 0 0 0 0 1 0 0,2,categoryB,j,,,0,7,7,0,0,12,12,5,,,,,,,,,,,,,,,,,,,f,0,0.248503167,,,,,,,,,,,,,,,,,,,,,,,,,,,,,,,,,,,,888,2,2021_Sep_10_1053,joplin1,2021.2.3,59.96619406
_train_cond.csv,0 0 1 1 1 1 1 1 0 0,6,categoryA,f,,,0,7,7,0,0,13,13,13,,,,,,,,,,,,,,,,,,,j,0,0.027776041,,,,,,,,,,,,,,,,,,,,,,,,,,,,,,,,,,,,888,2,2021_Sep_10_1053,joplin1,2021.2.3,59.96619406
_train_cond.csv,0 0 1 0 0 0 0 1 0 0,2,categoryB,j,,,0,7,7,0,1,0,14,5,,,,,,,,,,,,,,,,,,,j,1,0.2755245,,,,,,,,,,,,,,,,,,,,,,,,,,,,,,,,,,,,888,2,2021_Sep_10_1053,joplin1,2021.2.3,59.96619406
_train_cond.csv,0 0 0 1 1 1 1 0 0 0,4,categoryB,j,,,0,7,7,0,1,1,15,3,,,,,,,,,,,,,,,,,,,j,1,0.291661333,,,,,,,,,,,,,,,,,,,,,,,,,,,,,,,,,,,,888,2,2021_Sep_10_1053,joplin1,2021.2.3,59.96619406
_train_cond.csv,1 1 1 0 0 0 0 1 1 1,6,categoryA,f,,,0,7,7,0,1,2,16,10,,,,,,,,,,,,,,,,,,,f,1,0.073245625,,,,,,,,,,,,,,,,,,,,,,,,,,,,,,,,,,,,888,2,2021_Sep_10_1053,joplin1,2021.2.3,59.96619406
_train_cond.csv,1 0 0 0 0 0 0 0 0 1,2,categoryB,j,,,0,7,7,0,1,3,17,0,,,,,,,,,,,,,,,,,,,j,1,0.335133084,,,,,,,,,,,,,,,,,,,,,,,,,,,,,,,,,,,,888,2,2021_Sep_10_1053,joplin1,2021.2.3,59.96619406
_train_cond.csv,1 1 0 1 1 1 1 0 1 1,8,categoryA,f,,,0,7,7,0,1,4,18,12,,,,,,,,,,,,,,,,,,,j,0,0.899762416,,,,,,,,,,,,,,,,,,,,,,,,,,,,,,,,,,,,888,2,2021_Sep_10_1053,joplin1,2021.2.3,59.96619406
_train_cond.csv,0 0 1 1 1 1 1 1 0 0,6,categoryA,f,,,0,7,7,0,1,5,19,13,,,,,,,,,,,,,,,,,,,j,0,0.237556875,,,,,,,,,,,,,,,,,,,,,,,,,,,,,,,,,,,,888,2,2021_Sep_10_1053,joplin1,2021.2.3,59.96619406
_train_cond.csv,1 1 0 1 0 0 1 0 1 1,6,categoryA,f,,,0,7,7,0,1,6,20,9,,,,,,,,,,,,,,,,,,,f,1,0.269126667,,,,,,,,,,,,,,,,,,,,,,,,,,,,,,,,,,,,888,2,2021_Sep_10_1053,joplin1,2021.2.3,59.96619406
_train_cond.csv,1 0 1 1 1 1 1 1 0 1,8,categoryA,f,,,0,7,7,0,1,7,21,8,,,,,,,,,,,,,,,,,,,f,1,0.283018584,,,,,,,,,,,,,,,,,,,,,,,,,,,,,,,,,,,,888,2,2021_Sep_10_1053,joplin1,2021.2.3,59.96619406
_train_cond.csv,0 0 0 1 0 0 1 0 0 0,2,categoryB,j,,,0,7,7,0,1,8,22,4,,,,,,,,,,,,,,,,,,,j,1,0.248139667,,,,,,,,,,,,,,,,,,,,,,,,,,,,,,,,,,,,888,2,2021_Sep_10_1053,joplin1,2021.2.3,59.96619406
_train_cond.csv,1 1 0 0 0 0 0 0 1 1,4,categoryB,j,,,0,7,7,0,1,9,23,6,,,,,,,,,,,,,,,,,,,f,0,0.265033166,,,,,,,,,,,,,,,,,,,,,,,,,,,,,,,,,,,,888,2,2021_Sep_10_1053,joplin1,2021.2.3,59.96619406
_train_cond.csv,0 0 1 0 1 1 0 1 0 0,4,categoryB,j,,,0,7,7,0,1,10,24,2,,,,,,,,,,,,,,,,,,,f,0,0.262924334,,,,,,,,,,,,,,,,,,,,,,,,,,,,,,,,,,,,888,2,2021_Sep_10_1053,joplin1,2021.2.3,59.96619406
_train_cond.csv,1 1 1 0 1 1 0 1 1 1,8,categoryA,f,,,0,7,7,0,1,11,25,11,,,,,,,,,,,,,,,,,,,f,1,0.278902833,,,,,,,,,,,,,,,,,,,,,,,,,,,,,,,,,,,,888,2,2021_Sep_10_1053,joplin1,2021.2.3,59.96619406
_train_cond.csv,0 1 0 0 0 0 0 0 1 0,2,categoryB,j,,,0,7,7,0,1,12,26,1,,,,,,,,,,,,,,,,,,,j,1,0.236330708,,,,,,,,,,,,,,,,,,,,,,,,,,,,,,,,,,,,888,2,2021_Sep_10_1053,joplin1,2021.2.3,59.96619406
_train_cond.csv,0 1 1 1 1 1 1 1 1 0,8,categoryA,f,,,0,7,7,0,1,13,27,7,,,,,,,,,,,,,,,,,,,f,1,0.886205917,,,,,,,,,,,,,,,,,,,,,,,,,,,,,,,,,,,,888,2,2021_Sep_10_1053,joplin1,2021.2.3,59.96619406
_train_cond.csv,0 0 1 1 1 1 1 1 0 0,6,categoryA,f,,,0,7,7,0,2,0,28,13,,,,,,,,,,,,,,,,,,,j,0,0.019308292,,,,,,,,,,,,,,,,,,,,,,,,,,,,,,,,,,,,888,2,2021_Sep_10_1053,joplin1,2021.2.3,59.96619406
_train_cond.csv,1 0 0 0 0 0 0 0 0 1,2,categoryB,j,,,0,7,7,0,2,1,29,0,,,,,,,,,,,,,,,,,,,j,1,0.598829291,,,,,,,,,,,,,,,,,,,,,,,,,,,,,,,,,,,,888,2,2021_Sep_10_1053,joplin1,2021.2.3,59.96619406
_train_cond.csv,1 0 1 1 1 1 1 1 0 1,8,categoryA,f,,,0,7,7,0,2,2,30,8,,,,,,,,,,,,,,,,,,,f,1,0.248088708,,,,,,,,,,,,,,,,,,,,,,,,,,,,,,,,,,,,888,2,2021_Sep_10_1053,joplin1,2021.2.3,59.96619406
_train_cond.csv,0 0 1 0 0 0 0 1 0 0,2,categoryB,j,,,0,7,7,0,2,3,31,5,,,,,,,,,,,,,,,,,,,j,1,0.231757709,,,,,,,,,,,,,,,,,,,,,,,,,,,,,,,,,,,,888,2,2021_Sep_10_1053,joplin1,2021.2.3,59.96619406
_train_cond.csv,0 0 1 0 1 1 0 1 0 0,4,categoryB,j,,,0,7,7,0,2,4,32,2,,,,,,,,,,,,,,,,,,,j,1,0.276381084,,,,,,,,,,,,,,,,,,,,,,,,,,,,,,,,,,,,888,2,2021_Sep_10_1053,joplin1,2021.2.3,59.96619406
_train_cond.csv,1 1 0 1 0 0 1 0 1 1,6,categoryA,f,,,0,7,7,0,2,5,33,9,,,,,,,,,,,,,,,,,,,j,0,1.558851208,,,,,,,,,,,,,,,,,,,,,,,,,,,,,,,,,,,,888,2,2021_Sep_10_1053,joplin1,2021.2.3,59.96619406
_train_cond.csv,1 1 0 0 0 0 0 0 1 1,4,categoryB,j,,,0,7,7,0,2,6,34,6,,,,,,,,,,,,,,,,,,,j,1,0.460111625,,,,,,,,,,,,,,,,,,,,,,,,,,,,,,,,,,,,888,2,2021_Sep_10_1053,joplin1,2021.2.3,59.96619406
_train_cond.csv,1 1 1 0 1 1 0 1 1 1,8,categoryA,f,,,0,7,7,0,2,7,35,11,,,,,,,,,,,,,,,,,,,f,1,0.323331125,,,,,,,,,,,,,,,,,,,,,,,,,,,,,,,,,,,,888,2,2021_Sep_10_1053,joplin1,2021.2.3,59.96619406
_train_cond.csv,0 0 0 1 0 0 1 0 0 0,2,categoryB,j,,,0,7,7,0,2,8,36,4,,,,,,,,,,,,,,,,,,,j,1,0.277466958,,,,,,,,,,,,,,,,,,,,,,,,,,,,,,,,,,,,888,2,2021_Sep_10_1053,joplin1,2021.2.3,59.96619406
_train_cond.csv,0 0 0 1 1 1 1 0 0 0,4,categoryB,j,,,0,7,7,0,2,9,37,3,,,,,,,,,,,,,,,,,,,j,1,0.3261355,,,,,,,,,,,,,,,,,,,,,,,,,,,,,,,,,,,,888,2,2021_Sep_10_1053,joplin1,2021.2.3,59.96619406
_train_cond.csv,1 1 1 0 0 0 0 1 1 1,6,categoryA,f,,,0,7,7,0,2,10,38,10,,,,,,,,,,,,,,,,,,,f,1,0.292870417,,,,,,,,,,,,,,,,,,,,,,,,,,,,,,,,,,,,888,2,2021_Sep_10_1053,joplin1,2021.2.3,59.96619406
_train_cond.csv,0 1 0 0 0 0 0 0 1 0,2,categoryB,j,,,0,7,7,0,2,11,39,1,,,,,,,,,,,,,,,,,,,j,1,0.313390667,,,,,,,,,,,,,,,,,,,,,,,,,,,,,,,,,,,,888,2,2021_Sep_10_1053,joplin1,2021.2.3,59.96619406
_train_cond.csv,1 1 0 1 1 1 1 0 1 1,8,categoryA,f,,,0,7,7,0,2,12,40,12,,,,,,,,,,,,,,,,,,,j,0,0.261286125,,,,,,,,,,,,,,,,,,,,,,,,,,,,,,,,,,,,888,2,2021_Sep_10_1053,joplin1,2021.2.3,59.96619406
_train_cond.csv,0 1 1 1 1 1 1 1 1 0,8,categoryA,f,,,0,7,7,0,2,13,41,7,,,,,,,,,,,,,,,,,,,f,1,0.977815209,,,,,,,,,,,,,,,,,,,,,,,,,,,,,,,,,,,,888,2,2021_Sep_10_1053,joplin1,2021.2.3,59.96619406
_train_cond.csv,,,,,,,0,7,7,0,,,,,,,,,,,,,,,,,,,,,,,,,,space,1.055403875,,,,,,,,,,,,,,,,,,,,,,,,,,,,,,,,,,888,2,2021_Sep_10_1053,joplin1,2021.2.3,59.96619406
,,,,,,,,,,,,,,,,,,,,,,,,,,,,,,,,,,,,,,q,18.84463617,,,,,,,,,,,,,,,,,,,,,,,,,,,,,,,,888,2,2021_Sep_10_1053,joplin1,2021.2.3,59.96619406
,,,,,,,,,,,,,,,,,,,,,,,,,,,,,,,,,,,,,,,,j,16.85323188,,,,,,,,,,,,,,,,,,,,,,,,,,,,,,888,2,2021_Sep_10_1053,joplin1,2021.2.3,59.96619406
,,,,,,,,,,,,,,,,,,,,,,,,,,,,,,,,,,,,,,,,,,space,4.120624834,,,,,,,,,,,,,,,,,,,,,,,,,,,,888,2,2021_Sep_10_1053,joplin1,2021.2.3,59.96619406
,,,,,,,,,,,,,,,,,,,,,,,,,,,,,,,,,,,,,,,,,,,,space,0.806613875,,,,,,,,,,,,,,,,,,,,,,,,,,888,2,2021_Sep_10_1053,joplin1,2021.2.3,59.96619406
,1 1 1 1 1 1 1 1 0 1,9,categoryA,f,genfile2.csv,0,,,,,,,,,0,0,0,1,0,0,0,52,,,,,,,,,,,,,,,,,,,,,,,,f,1,0.238532542,,,,,,,,,,,,,,,,,,,,,,,888,2,2021_Sep_10_1053,joplin1,2021.2.3,59.96619406
,0 1 0 0 0 0 0 0 1 0,2,categoryB,j,genfile2.csv,1,,,,,,,,,0,0,0,1,0,1,1,3,,,,,,,,,,,,,,,,,,,,,,,,j,1,0.160432458,,,,,,,,,,,,,,,,,,,,,,,888,2,2021_Sep_10_1053,joplin1,2021.2.3,59.96619406
,1 1 1 0 1 1 0 1 1 1,8,categoryA,f,genfile2.csv,1,,,,,,,,,0,0,0,1,0,2,2,13,,,,,,,,,,,,,,,,,,,,,,,,f,1,0.336407458,,,,,,,,,,,,,,,,,,,,,,,888,2,2021_Sep_10_1053,joplin1,2021.2.3,59.96619406
,0 1 1 0 0 0 0 0 0 0,2,categoryB,j,genfile2.csv,0,,,,,,,,,0,0,0,1,0,3,3,21,,,,,,,,,,,,,,,,,,,,,,,,j,1,0.362126375,,,,,,,,,,,,,,,,,,,,,,,888,2,2021_Sep_10_1053,joplin1,2021.2.3,59.96619406
,1 1 0 0 0 1 0 0 0 0,3,categoryB,j,genfile2.csv,0,,,,,,,,,0,0,0,1,0,4,4,30,,,,,,,,,,,,,,,,,,,,,,,,j,1,0.5005815,,,,,,,,,,,,,,,,,,,,,,,888,2,2021_Sep_10_1053,joplin1,2021.2.3,59.96619406
,1 1 1 1 1 1 1 1 1 1,10,categoryA,f,genfile2.csv,0,,,,,,,,,0,0,0,1,0,5,5,1,,,,,,,,,,,,,,,,,,,,,,,,f,1,0.238554583,,,,,,,,,,,,,,,,,,,,,,,888,2,2021_Sep_10_1053,joplin1,2021.2.3,59.96619406
,1 0 0 1 0 0 0 0 0 0,2,categoryB,j,genfile2.csv,0,,,,,,,,,0,0,0,1,0,6,6,23,,,,,,,,,,,,,,,,,,,,,,,,f,0,1.628448625,,,,,,,,,,,,,,,,,,,,,,,888,2,2021_Sep_10_1053,joplin1,2021.2.3,59.96619406
,0 0 1 0 1 1 0 1 0 0,4,categoryB,j,genfile2.csv,1,,,,,,,,,0,0,0,1,0,7,7,4,,,,,,,,,,,,,,,,,,,,,,,,j,1,1.090828583,,,,,,,,,,,,,,,,,,,,,,,888,2,2021_Sep_10_1053,joplin1,2021.2.3,59.96619406
,0 1 0 1 0 1 1 0 0 0,4,categoryB,j,genfile2.csv,0,,,,,,,,,0,0,0,1,0,8,8,35,,,,,,,,,,,,,,,,,,,,,,,,j,1,0.6769755,,,,,,,,,,,,,,,,,,,,,,,888,2,2021_Sep_10_1053,joplin1,2021.2.3,59.96619406
,1 1 0 1 1 1 0 1 1 1,8,categoryA,f,genfile2.csv,0,,,,,,,,,0,0,0,1,0,9,9,46,,,,,,,,,,,,,,,,,,,,,,,,f,1,1.622757125,,,,,,,,,,,,,,,,,,,,,,,888,2,2021_Sep_10_1053,joplin1,2021.2.3,59.96619406
,1 1 1 0 1 0 1 1 1 1,8,categoryA,f,genfile2.csv,0,,,,,,,,,0,0,0,1,0,10,10,47,,,,,,,,,,,,,,,,,,,,,,,,f,1,1.051097792,,,,,,,,,,,,,,,,,,,,,,,888,2,2021_Sep_10_1053,joplin1,2021.2.3,59.96619406
,1 0 0 0 0 0 0 0 0 1,2,categoryB,j,genfile2.csv,1,,,,,,,,,0,0,0,1,0,11,11,2,,,,,,,,,,,,,,,,,,,,,,,,j,1,0.252223042,,,,,,,,,,,,,,,,,,,,,,,888,2,2021_Sep_10_1053,joplin1,2021.2.3,59.96619406
,1 1 1 0 1 0 0 1 0 1,6,categoryA,f,genfile2.csv,0,,,,,,,,,0,0,0,1,0,12,12,38,,,,,,,,,,,,,,,,,,,,,,,,f,1,1.086002291,,,,,,,,,,,,,,,,,,,,,,,888,2,2021_Sep_10_1053,joplin1,2021.2.3,59.96619406
,1 1 0 1 1 1 1 0 1 1,8,categoryA,f,genfile2.csv,1,,,,,,,,,0,0,0,1,0,13,13,14,,,,,,,,,,,,,,,,,,,,,,,,j,0,0.243179959,,,,,,,,,,,,,,,,,,,,,,,888,2,2021_Sep_10_1053,joplin1,2021.2.3,59.96619406
,0 1 1 0 0 1 1 1 1 0,6,categoryA,f,genfile2.csv,0,,,,,,,,,0,0,0,1,0,14,14,37,,,,,,,,,,,,,,,,,,,,,,,,f,1,0.451263834,,,,,,,,,,,,,,,,,,,,,,,888,2,2021_Sep_10_1053,joplin1,2021.2.3,59.96619406
,1 1 0 1 0 0 1 0 1 1,6,categoryA,f,genfile2.csv,1,,,,,,,,,0,0,0,1,0,15,15,11,,,,,,,,,,,,,,,,,,,,,,,,j,0,0.242465708,,,,,,,,,,,,,,,,,,,,,,,888,2,2021_Sep_10_1053,joplin1,2021.2.3,59.96619406
,0 1 1 0 1 0 1 1 1 1,7,categoryA,f,genfile2.csv,0,,,,,,,,,0,0,0,1,0,16,16,41,,,,,,,,,,,,,,,,,,,,,,,,f,1,0.434672083,,,,,,,,,,,,,,,,,,,,,,,888,2,2021_Sep_10_1053,joplin1,2021.2.3,59.96619406
,1 1 1 1 0 1 1 0 1 1,8,categoryA,f,genfile2.csv,0,,,,,,,,,0,0,0,1,0,17,17,50,,,,,,,,,,,,,,,,,,,,,,,,f,1,0.645280833,,,,,,,,,,,,,,,,,,,,,,,888,2,2021_Sep_10_1053,joplin1,2021.2.3,59.96619406
,0 0 0 0 0 1 0 0 0 0,1,categoryB,j,genfile2.csv,0,,,,,,,,,0,0,0,1,0,18,18,17,,,,,,,,,,,,,,,,,,,,,,,,j,1,0.281443667,,,,,,,,,,,,,,,,,,,,,,,888,2,2021_Sep_10_1053,joplin1,2021.2.3,59.96619406
,1 0 1 1 1 0 1 0 1 0,6,categoryA,f,genfile2.csv,0,,,,,,,,,0,0,0,1,0,19,19,36,,,,,,,,,,,,,,,,,,,,,,,,f,1,1.988682083,,,,,,,,,,,,,,,,,,,,,,,888,2,2021_Sep_10_1053,joplin1,2021.2.3,59.96619406
,0 0 0 1 0 0 1 0 0 0,2,categoryB,j,genfile2.csv,1,,,,,,,,,0,0,0,1,0,20,20,6,,,,,,,,,,,,,,,,,,,,,,,,j,1,0.288901041,,,,,,,,,,,,,,,,,,,,,,,888,2,2021_Sep_10_1053,joplin1,2021.2.3,59.96619406
,0 0 1 0 0 0 0 1 0 0,2,categoryB,j,genfile2.csv,1,,,,,,,,,0,0,0,1,0,21,21,7,,,,,,,,,,,,,,,,,,,,,,,,f,0,0.963254916,,,,,,,,,,,,,,,,,,,,,,,888,2,2021_Sep_10_1053,joplin1,2021.2.3,59.96619406
,0 0 0 1 0 0 0 0 0 0,1,categoryB,j,genfile2.csv,0,,,,,,,,,0,0,0,1,0,22,22,18,,,,,,,,,,,,,,,,,,,,,,,,j,1,0.39988575,,,,,,,,,,,,,,,,,,,,,,,888,2,2021_Sep_10_1053,joplin1,2021.2.3,59.96619406
,0 0 0 1 1 1 1 0 0 0,4,categoryB,j,genfile2.csv,1,,,,,,,,,0,0,0,1,0,23,23,5,,,,,,,,,,,,,,,,,,,,,,,,j,1,0.487770875,,,,,,,,,,,,,,,,,,,,,,,888,2,2021_Sep_10_1053,joplin1,2021.2.3,59.96619406
,1 1 1 1 1 0 1 1 1 1,9,categoryA,f,genfile2.csv,0,,,,,,,,,0,0,0,1,0,24,24,54,,,,,,,,,,,,,,,,,,,,,,,,f,1,0.271243458,,,,,,,,,,,,,,,,,,,,,,,888,2,2021_Sep_10_1053,joplin1,2021.2.3,59.96619406
,0 0 0 0 0 1 0 0 0 1,2,categoryB,j,genfile2.csv,0,,,,,,,,,0,0,0,1,0,25,25,24,,,,,,,,,,,,,,,,,,,,,,,,j,1,0.244122542,,,,,,,,,,,,,,,,,,,,,,,888,2,2021_Sep_10_1053,joplin1,2021.2.3,59.96619406
,0 1 0 1 0 0 0 1 0 1,4,categoryB,j,genfile2.csv,0,,,,,,,,,0,0,0,1,0,26,26,34,,,,,,,,,,,,,,,,,,,,,,,,f,0,0.355876458,,,,,,,,,,,,,,,,,,,,,,,888,2,2021_Sep_10_1053,joplin1,2021.2.3,59.96619406
,1 1 1 0 0 0 0 1 1 1,6,categoryA,f,genfile2.csv,1,,,,,,,,,0,0,0,1,0,27,27,12,,,,,,,,,,,,,,,,,,,,,,,,f,1,0.2989145,,,,,,,,,,,,,,,,,,,,,,,888,2,2021_Sep_10_1053,joplin1,2021.2.3,59.96619406
,1 0 1 0 0 1 0 1 1 1,6,categoryA,f,genfile2.csv,0,,,,,,,,,0,0,0,1,0,28,28,39,,,,,,,,,,,,,,,,,,,,,,,,f,1,0.86332975,,,,,,,,,,,,,,,,,,,,,,,888,2,2021_Sep_10_1053,joplin1,2021.2.3,59.96619406
,0 1 1 1 1 1 1 1 1 0,8,categoryA,f,genfile2.csv,1,,,,,,,,,0,0,0,1,0,29,29,9,,,,,,,,,,,,,,,,,,,,,,,,f,1,0.93697175,,,,,,,,,,,,,,,,,,,,,,,888,2,2021_Sep_10_1053,joplin1,2021.2.3,59.96619406
,1 0 0 0 0 1 1 0 1 0,4,categoryB,j,genfile2.csv,0,,,,,,,,,0,0,0,1,0,30,30,33,,,,,,,,,,,,,,,,,,,,,,,,j,1,0.230522083,,,,,,,,,,,,,,,,,,,,,,,888,2,2021_Sep_10_1053,joplin1,2021.2.3,59.96619406
,0 1 1 1 1 1 1 1 0 1,8,categoryA,f,genfile2.csv,0,,,,,,,,,0,0,0,1,0,31,31,49,,,,,,,,,,,,,,,,,,,,,,,,f,1,0.286691958,,,,,,,,,,,,,,,,,,,,,,,888,2,2021_Sep_10_1053,joplin1,2021.2.3,59.96619406
,0 0 1 1 1 0 1 1 1 1,7,categoryA,f,genfile2.csv,0,,,,,,,,,0,0,0,1,0,32,32,44,,,,,,,,,,,,,,,,,,,,,,,,f,1,0.334788208,,,,,,,,,,,,,,,,,,,,,,,888,2,2021_Sep_10_1053,joplin1,2021.2.3,59.96619406
,1 1 1 1 1 1 0 1 1 1,9,categoryA,f,genfile2.csv,0,,,,,,,,,0,0,0,1,0,33,33,53,,,,,,,,,,,,,,,,,,,,,,,,f,1,2.046393208,,,,,,,,,,,,,,,,,,,,,,,888,2,2021_Sep_10_1053,joplin1,2021.2.3,59.96619406
,1 1 1 0 0 1 1 0 1 1,7,categoryA,f,genfile2.csv,0,,,,,,,,,0,0,0,1,0,34,34,42,,,,,,,,,,,,,,,,,,,,,,,,j,0,0.2048525,,,,,,,,,,,,,,,,,,,,,,,888,2,2021_Sep_10_1053,joplin1,2021.2.3,59.96619406
,1 1 0 0 0 0 0 0 1 1,4,categoryB,j,genfile2.csv,1,,,,,,,,,0,0,0,1,0,35,35,8,,,,,,,,,,,,,,,,,,,,,,,,j,1,0.293320625,,,,,,,,,,,,,,,,,,,,,,,888,2,2021_Sep_10_1053,joplin1,2021.2.3,59.96619406
,0 0 0 1 0 1 1 0 0 0,3,categoryB,j,genfile2.csv,0,,,,,,,,,0,0,0,1,0,36,36,26,,,,,,,,,,,,,,,,,,,,,,,,j,1,0.200699333,,,,,,,,,,,,,,,,,,,,,,,888,2,2021_Sep_10_1053,joplin1,2021.2.3,59.96619406
,0 0 0 0 0 0 0 0 1 0,1,categoryB,j,genfile2.csv,0,,,,,,,,,0,0,0,1,0,37,37,16,,,,,,,,,,,,,,,,,,,,,,,,j,1,0.081247375,,,,,,,,,,,,,,,,,,,,,,,888,2,2021_Sep_10_1053,joplin1,2021.2.3,59.96619406
,0 0 1 1 1 1 1 1 0 0,6,categoryA,f,genfile2.csv,1,,,,,,,,,0,0,0,1,0,38,38,15,,,,,,,,,,,,,,,,,,,,,,,,f,1,0.358926917,,,,,,,,,,,,,,,,,,,,,,,888,2,2021_Sep_10_1053,joplin1,2021.2.3,59.96619406
,0 0 0 0 0 0 1 0 0 0,1,categoryB,j,genfile2.csv,0,,,,,,,,,0,0,0,1,0,39,39,19,,,,,,,,,,,,,,,,,,,,,,,,j,1,0.431949792,,,,,,,,,,,,,,,,,,,,,,,888,2,2021_Sep_10_1053,joplin1,2021.2.3,59.96619406
,0 1 0 0 0 0 0 1 1 0,3,categoryB,j,genfile2.csv,0,,,,,,,,,0,0,0,1,0,40,40,28,,,,,,,,,,,,,,,,,,,,,,,,f,0,0.44768975,,,,,,,,,,,,,,,,,,,,,,,888,2,2021_Sep_10_1053,joplin1,2021.2.3,59.96619406
,0 0 0 1 0 1 0 1 0 0,3,categoryB,j,genfile2.csv,0,,,,,,,,,0,0,0,1,0,41,41,27,,,,,,,,,,,,,,,,,,,,,,,,j,1,0.294649041,,,,,,,,,,,,,,,,,,,,,,,888,2,2021_Sep_10_1053,joplin1,2021.2.3,59.96619406
,0 0 0 0 0 0 0 0 0 0,0,categoryB,j,genfile2.csv,0,,,,,,,,,0,0,0,1,0,42,42,0,,,,,,,,,,,,,,,,,,,,,,,,f,0,0.513267333,,,,,,,,,,,,,,,,,,,,,,,888,2,2021_Sep_10_1053,joplin1,2021.2.3,59.96619406
,0 0 0 0 0 1 0 0 1 0,2,categoryB,j,genfile2.csv,0,,,,,,,,,0,0,0,1,0,43,43,22,,,,,,,,,,,,,,,,,,,,,,,,f,0,0.449508458,,,,,,,,,,,,,,,,,,,,,,,888,2,2021_Sep_10_1053,joplin1,2021.2.3,59.96619406
,1 0 1 1 1 1 1 1 1 1,9,categoryA,f,genfile2.csv,0,,,,,,,,,0,0,0,1,0,44,44,55,,,,,,,,,,,,,,,,,,,,,,,,f,1,0.270203125,,,,,,,,,,,,,,,,,,,,,,,888,2,2021_Sep_10_1053,joplin1,2021.2.3,59.96619406
,0 1 0 1 1 0 0 1 0 0,4,categoryB,j,genfile2.csv,0,,,,,,,,,0,0,0,1,0,45,45,31,,,,,,,,,,,,,,,,,,,,,,,,j,1,0.280852375,,,,,,,,,,,,,,,,,,,,,,,888,2,2021_Sep_10_1053,joplin1,2021.2.3,59.96619406
,1 1 1 1 0 1 1 1 0 0,7,categoryA,f,genfile2.csv,0,,,,,,,,,0,0,0,1,0,46,46,45,,,,,,,,,,,,,,,,,,,,,,,,f,1,0.459076042,,,,,,,,,,,,,,,,,,,,,,,888,2,2021_Sep_10_1053,joplin1,2021.2.3,59.96619406
,0 1 0 1 0 0 0 0 0 0,2,categoryB,j,genfile2.csv,0,,,,,,,,,0,0,0,1,0,47,47,25,,,,,,,,,,,,,,,,,,,,,,,,j,1,0.499455833,,,,,,,,,,,,,,,,,,,,,,,888,2,2021_Sep_10_1053,joplin1,2021.2.3,59.96619406
,1 1 1 0 1 1 1 1 1 1,9,categoryA,f,genfile2.csv,0,,,,,,,,,0,0,0,1,0,48,48,51,,,,,,,,,,,,,,,,,,,,,,,,f,1,0.287525917,,,,,,,,,,,,,,,,,,,,,,,888,2,2021_Sep_10_1053,joplin1,2021.2.3,59.96619406
,1 1 0 0 1 1 0 1 1 0,6,categoryA,f,genfile2.csv,0,,,,,,,,,0,0,0,1,0,49,49,40,,,,,,,,,,,,,,,,,,,,,,,,j,0,0.263564917,,,,,,,,,,,,,,,,,,,,,,,888,2,2021_Sep_10_1053,joplin1,2021.2.3,59.96619406
,0 1 0 1 1 1 1 0 1 1,7,categoryA,f,genfile2.csv,0,,,,,,,,,0,0,0,1,0,50,50,43,,,,,,,,,,,,,,,,,,,,,,,,j,0,0.185216042,,,,,,,,,,,,,,,,,,,,,,,888,2,2021_Sep_10_1053,joplin1,2021.2.3,59.96619406
,1 0 1 1 0 1 0 0 0 0,4,categoryB,j,genfile2.csv,0,,,,,,,,,0,0,0,1,0,51,51,32,,,,,,,,,,,,,,,,,,,,,,,,f,0,1.894948917,,,,,,,,,,,,,,,,,,,,,,,888,2,2021_Sep_10_1053,joplin1,2021.2.3,59.96619406
,0 0 1 0 0 0 0 0 0 0,1,categoryB,j,genfile2.csv,0,,,,,,,,,0,0,0,1,0,52,52,20,,,,,,,,,,,,,,,,,,,,,,,,f,0,0.344540917,,,,,,,,,,,,,,,,,,,,,,,888,2,2021_Sep_10_1053,joplin1,2021.2.3,59.96619406
,1 0 1 1 1 1 1 1 0 1,8,categoryA,f,genfile2.csv,1,,,,,,,,,0,0,0,1,0,53,53,10,,,,,,,,,,,,,,,,,,,,,,,,f,1,0.191845125,,,,,,,,,,,,,,,,,,,,,,,888,2,2021_Sep_10_1053,joplin1,2021.2.3,59.96619406
,0 0 1 0 0 0 0 0 1 1,3,categoryB,j,genfile2.csv,0,,,,,,,,,0,0,0,1,0,54,54,29,,,,,,,,,,,,,,,,,,,,,,,,j,1,0.330259292,,,,,,,,,,,,,,,,,,,,,,,888,2,2021_Sep_10_1053,joplin1,2021.2.3,59.96619406
,1 1 1 1 0 1 1 1 0 1,8,categoryA,f,genfile2.csv,0,,,,,,,,,0,0,0,1,0,55,55,48,,,,,,,,,,,,,,,,,,,,,,,,j,0,1.613513375,,,,,,,,,,,,,,,,,,,,,,,888,2,2021_Sep_10_1053,joplin1,2021.2.3,59.96619406
,,,,,genfile2.csv,,,,,,,,,,0,0,0,1,,,,,,,,,,,,,,,,,,space,4.098622833,,,,,,,,,,,,,,,,,,,,,,,,,,,,,,,,,,888,2,2021_Sep_10_1053,joplin1,2021.2.3,59.96619406
,0 0 1 1 1 1 1 1 0 0,6,categoryA,f,genfile1.csv,1,,,,,,,,,0,1,1,0,0,0,0,15,,,,,,,,,,,,,,,,,,,,,,,,f,1,1.146038875,,,,,,,,,,,,,,,,,,,,,,,888,2,2021_Sep_10_1053,joplin1,2021.2.3,59.96619406
,0 0 0 1 1 1 0 1 0 0,4,categoryB,j,genfile1.csv,0,,,,,,,,,0,1,1,0,0,1,1,34,,,,,,,,,,,,,,,,,,,,,,,,j,1,0.900702666,,,,,,,,,,,,,,,,,,,,,,,888,2,2021_Sep_10_1053,joplin1,2021.2.3,59.96619406
,0 0 0 0 0 0 1 1 0 0,2,categoryB,j,genfile1.csv,0,,,,,,,,,0,1,1,0,0,2,2,22,,,,,,,,,,,,,,,,,,,,,,,,j,1,0.393101625,,,,,,,,,,,,,,,,,,,,,,,888,2,2021_Sep_10_1053,joplin1,2021.2.3,59.96619406
,0 1 1 0 0 0 0 1 0 0,3,categoryB,j,genfile1.csv,0,,,,,,,,,0,1,1,0,0,3,3,28,,,,,,,,,,,,,,,,,,,,,,,,f,0,0.23537525,,,,,,,,,,,,,,,,,,,,,,,888,2,2021_Sep_10_1053,joplin1,2021.2.3,59.96619406
,1 1 0 0 0 0 0 0 1 1,4,categoryB,j,genfile1.csv,1,,,,,,,,,0,1,1,0,0,4,4,8,,,,,,,,,,,,,,,,,,,,,,,,j,1,0.380185834,,,,,,,,,,,,,,,,,,,,,,,888,2,2021_Sep_10_1053,joplin1,2021.2.3,59.96619406
,1 1 1 1 1 1 1 1 1 0,9,categoryA,f,genfile1.csv,0,,,,,,,,,0,1,1,0,0,5,5,52,,,,,,,,,,,,,,,,,,,,,,,,f,1,0.73657225,,,,,,,,,,,,,,,,,,,,,,,888,2,2021_Sep_10_1053,joplin1,2021.2.3,59.96619406
,1 0 0 1 1 1 1 1 1 0,7,categoryA,f,genfile1.csv,0,,,,,,,,,0,1,1,0,0,6,6,45,,,,,,,,,,,,,,,,,,,,,,,,f,1,0.338383542,,,,,,,,,,,,,,,,,,,,,,,888,2,2021_Sep_10_1053,joplin1,2021.2.3,59.96619406
,0 0 1 0 1 1 0 1 0 0,4,categoryB,j,genfile1.csv,1,,,,,,,,,0,1,1,0,0,7,7,4,,,,,,,,,,,,,,,,,,,,,,,,f,0,1.622529167,,,,,,,,,,,,,,,,,,,,,,,888,2,2021_Sep_10_1053,joplin1,2021.2.3,59.96619406
,0 1 1 1 1 1 1 1 1 1,9,categoryA,f,genfile1.csv,0,,,,,,,,,0,1,1,0,0,8,8,53,,,,,,,,,,,,,,,,,,,,,,,,f,1,1.879136041,,,,,,,,,,,,,,,,,,,,,,,888,2,2021_Sep_10_1053,joplin1,2021.2.3,59.96619406
,0 0 0 1 0 1 0 0 0 0,2,categoryB,j,genfile1.csv,0,,,,,,,,,0,1,1,0,0,9,9,25,,,,,,,,,,,,,,,,,,,,,,,,j,1,0.280760416,,,,,,,,,,,,,,,,,,,,,,,888,2,2021_Sep_10_1053,joplin1,2021.2.3,59.96619406
,1 1 1 0 1 1 0 1 1 1,8,categoryA,f,genfile1.csv,1,,,,,,,,,0,1,1,0,0,10,10,13,,,,,,,,,,,,,,,,,,,,,,,,f,1,0.314169917,,,,,,,,,,,,,,,,,,,,,,,888,2,2021_Sep_10_1053,joplin1,2021.2.3,59.96619406
,0 0 1 0 0 0 0 1 0 0,2,categoryB,j,genfile1.csv,1,,,,,,,,,0,1,1,0,0,11,11,7,,,,,,,,,,,,,,,,,,,,,,,,None,0,,,,,,,,,,,,,,,,,,,,,,,,888,2,2021_Sep_10_1053,joplin1,2021.2.3,59.96619406
,0 0 0 0 0 0 0 1 0 0,1,categoryB,j,genfile1.csv,0,,,,,,,,,0,1,1,0,0,12,12,18,,,,,,,,,,,,,,,,,,,,,,,,j,1,0.202504417,,,,,,,,,,,,,,,,,,,,,,,888,2,2021_Sep_10_1053,joplin1,2021.2.3,59.96619406
,0 0 1 1 1 1 1 1 1 1,8,categoryA,f,genfile1.csv,0,,,,,,,,,0,1,1,0,0,13,13,46,,,,,,,,,,,,,,,,,,,,,,,,f,1,1.017507291,,,,,,,,,,,,,,,,,,,,,,,888,2,2021_Sep_10_1053,joplin1,2021.2.3,59.96619406
,0 0 0 0 0 0 0 0 0 1,1,categoryB,j,genfile1.csv,0,,,,,,,,,0,1,1,0,0,14,14,20,,,,,,,,,,,,,,,,,,,,,,,,j,1,0.295668208,,,,,,,,,,,,,,,,,,,,,,,888,2,2021_Sep_10_1053,joplin1,2021.2.3,59.96619406
,0 1 1 1 1 0 0 0 1 1,6,categoryA,f,genfile1.csv,0,,,,,,,,,0,1,1,0,0,15,15,37,,,,,,,,,,,,,,,,,,,,,,,,f,1,0.508945917,,,,,,,,,,,,,,,,,,,,,,,888,2,2021_Sep_10_1053,joplin1,2021.2.3,59.96619406
,0 0 0 1 1 1 1 0 0 0,4,categoryB,j,genfile1.csv,1,,,,,,,,,0,1,1,0,0,16,16,5,,,,,,,,,,,,,,,,,,,,,,,,j,1,0.353557959,,,,,,,,,,,,,,,,,,,,,,,888,2,2021_Sep_10_1053,joplin1,2021.2.3,59.96619406
,1 1 1 0 0 0 0 1 1 1,6,categoryA,f,genfile1.csv,1,,,,,,,,,0,1,1,0,0,17,17,12,,,,,,,,,,,,,,,,,,,,,,,,f,1,0.296996917,,,,,,,,,,,,,,,,,,,,,,,888,2,2021_Sep_10_1053,joplin1,2021.2.3,59.96619406
,1 1 0 0 0 1 0 1 1 1,6,categoryA,f,genfile1.csv,0,,,,,,,,,0,1,1,0,0,18,18,36,,,,,,,,,,,,,,,,,,,,,,,,j,0,0.313380541,,,,,,,,,,,,,,,,,,,,,,,888,2,2021_Sep_10_1053,joplin1,2021.2.3,59.96619406
,0 1 0 0 0 0 0 0 1 0,2,categoryB,j,genfile1.csv,1,,,,,,,,,0,1,1,0,0,19,19,3,,,,,,,,,,,,,,,,,,,,,,,,j,1,0.248367917,,,,,,,,,,,,,,,,,,,,,,,888,2,2021_Sep_10_1053,joplin1,2021.2.3,59.96619406
,1 1 0 1 1 1 1 0 1 1,8,categoryA,f,genfile1.csv,1,,,,,,,,,0,1,1,0,0,20,20,14,,,,,,,,,,,,,,,,,,,,,,,,j,0,0.219244459,,,,,,,,,,,,,,,,,,,,,,,888,2,2021_Sep_10_1053,joplin1,2021.2.3,59.96619406
,1 0 1 1 1 1 1 1 0 1,8,categoryA,f,genfile1.csv,1,,,,,,,,,0,1,1,0,0,21,21,10,,,,,,,,,,,,,,,,,,,,,,,,f,1,0.530133542,,,,,,,,,,,,,,,,,,,,,,,888,2,2021_Sep_10_1053,joplin1,2021.2.3,59.96619406
,1 0 0 1 0 1 0 0 0 0,3,categoryB,j,genfile1.csv,0,,,,,,,,,0,1,1,0,0,22,22,27,,,,,,,,,,,,,,,,,,,,,,,,j,1,0.19098925,,,,,,,,,,,,,,,,,,,,,,,888,2,2021_Sep_10_1053,joplin1,2021.2.3,59.96619406
,1 1 1 1 0 1 0 1 1 1,8,categoryA,f,genfile1.csv,0,,,,,,,,,0,1,1,0,0,23,23,47,,,,,,,,,,,,,,,,,,,,,,,,f,1,0.851561375,,,,,,,,,,,,,,,,,,,,,,,888,2,2021_Sep_10_1053,joplin1,2021.2.3,59.96619406
,1 0 0 0 0 0 0 0 0 1,2,categoryB,j,genfile1.csv,1,,,,,,,,,0,1,1,0,0,24,24,2,,,,,,,,,,,,,,,,,,,,,,,,j,1,0.342114083,,,,,,,,,,,,,,,,,,,,,,,888,2,2021_Sep_10_1053,joplin1,2021.2.3,59.96619406
,1 1 1 1 0 1 0 0 1 1,7,categoryA,f,genfile1.csv,0,,,,,,,,,0,1,1,0,0,25,25,44,,,,,,,,,,,,,,,,,,,,,,,,f,1,0.273772708,,,,,,,,,,,,,,,,,,,,,,,888,2,2021_Sep_10_1053,joplin1,2021.2.3,59.96619406
,0 1 1 1 0 0 0 0 0 0,3,categoryB,j,genfile1.csv,0,,,,,,,,,0,1,1,0,0,26,26,30,,,,,,,,,,,,,,,,,,,,,,,,j,1,0.496468125,,,,,,,,,,,,,,,,,,,,,,,888,2,2021_Sep_10_1053,joplin1,2021.2.3,59.96619406
,0 0 1 1 0 0 0 0 0 0,2,categoryB,j,genfile1.csv,0,,,,,,,,,0,1,1,0,0,27,27,24,,,,,,,,,,,,,,,,,,,,,,,,f,0,0.6105815,,,,,,,,,,,,,,,,,,,,,,,888,2,2021_Sep_10_1053,joplin1,2021.2.3,59.96619406
,1 0 0 1 0 1 1 0 1 1,6,categoryA,f,genfile1.csv,0,,,,,,,,,0,1,1,0,0,28,28,39,,,,,,,,,,,,,,,,,,,,,,,,f,1,0.466454458,,,,,,,,,,,,,,,,,,,,,,,888,2,2021_Sep_10_1053,joplin1,2021.2.3,59.96619406
,1 0 0 0 0 0 1 0 0 0,2,categoryB,j,genfile1.csv,0,,,,,,,,,0,1,1,0,0,29,29,23,,,,,,,,,,,,,,,,,,,,,,,,j,1,0.423122,,,,,,,,,,,,,,,,,,,,,,,888,2,2021_Sep_10_1053,joplin1,2021.2.3,59.96619406
,1 1 1 1 0 1 1 1 1 1,9,categoryA,f,genfile1.csv,0,,,,,,,,,0,1,1,0,0,30,30,51,,,,,,,,,,,,,,,,,,,,,,,,f,1,0.336363709,,,,,,,,,,,,,,,,,,,,,,,888,2,2021_Sep_10_1053,joplin1,2021.2.3,59.96619406
,1 0 1 1 1 1 0 1 1 0,7,categoryA,f,genfile1.csv,0,,,,,,,,,0,1,1,0,0,31,31,42,,,,,,,,,,,,,,,,,,,,,,,,j,0,0.289832792,,,,,,,,,,,,,,,,,,,,,,,888,2,2021_Sep_10_1053,joplin1,2021.2.3,59.96619406
,1 1 1 1 0 1 1 1 1 0,8,categoryA,f,genfile1.csv,0,,,,,,,,,0,1,1,0,0,32,32,50,,,,,,,,,,,,,,,,,,,,,,,,j,0,0.431827958,,,,,,,,,,,,,,,,,,,,,,,888,2,2021_Sep_10_1053,joplin1,2021.2.3,59.96619406
,1 0 1 1 1 1 1 1 1 0,8,categoryA,f,genfile1.csv,0,,,,,,,,,0,1,1,0,0,33,33,49,,,,,,,,,,,,,,,,,,,,,,,,j,0,0.906013666,,,,,,,,,,,,,,,,,,,,,,,888,2,2021_Sep_10_1053,joplin1,2021.2.3,59.96619406
,0 0 0 0 0 0 0 0 0 0,0,categoryB,j,genfile1.csv,0,,,,,,,,,0,1,1,0,0,34,34,0,,,,,,,,,,,,,,,,,,,,,,,,j,1,0.280534875,,,,,,,,,,,,,,,,,,,,,,,888,2,2021_Sep_10_1053,joplin1,2021.2.3,59.96619406
,0 0 1 0 0 1 0 0 1 0,3,categoryB,j,genfile1.csv,0,,,,,,,,,0,1,1,0,0,35,35,26,,,,,,,,,,,,,,,,,,,,,,,,f,0,1.257796834,,,,,,,,,,,,,,,,,,,,,,,888,2,2021_Sep_10_1053,joplin1,2021.2.3,59.96619406
,0 1 0 0 0 0 0 0 0 0,1,categoryB,j,genfile1.csv,0,,,,,,,,,0,1,1,0,0,36,36,16,,,,,,,,,,,,,,,,,,,,,,,,j,1,0.916958583,,,,,,,,,,,,,,,,,,,,,,,888,2,2021_Sep_10_1053,joplin1,2021.2.3,59.96619406
,1 1 1 1 1 1 1 1 0 0,8,categoryA,f,genfile1.csv,0,,,,,,,,,0,1,1,0,0,37,37,48,,,,,,,,,,,,,,,,,,,,,,,,f,1,0.2423995,,,,,,,,,,,,,,,,,,,,,,,888,2,2021_Sep_10_1053,joplin1,2021.2.3,59.96619406
,1 0 1 1 0 1 1 0 1 1,7,categoryA,f,genfile1.csv,0,,,,,,,,,0,1,1,0,0,38,38,41,,,,,,,,,,,,,,,,,,,,,,,,f,1,1.686816958,,,,,,,,,,,,,,,,,,,,,,,888,2,2021_Sep_10_1053,joplin1,2021.2.3,59.96619406
,1 1 0 1 0 0 1 0 1 1,6,categoryA,f,genfile1.csv,1,,,,,,,,,0,1,1,0,0,39,39,11,,,,,,,,,,,,,,,,,,,,,,,,j,0,0.27118975,,,,,,,,,,,,,,,,,,,,,,,888,2,2021_Sep_10_1053,joplin1,2021.2.3,59.96619406
,0 0 1 1 0 1 0 1 1 1,6,categoryA,f,genfile1.csv,0,,,,,,,,,0,1,1,0,0,40,40,40,,,,,,,,,,,,,,,,,,,,,,,,f,1,0.380390542,,,,,,,,,,,,,,,,,,,,,,,888,2,2021_Sep_10_1053,joplin1,2021.2.3,59.96619406
,0 0 0 1 0 0 1 0 0 0,2,categoryB,j,genfile1.csv,1,,,,,,,,,0,1,1,0,0,41,41,6,,,,,,,,,,,,,,,,,,,,,,,,j,1,0.327978417,,,,,,,,,,,,,,,,,,,,,,,888,2,2021_Sep_10_1053,joplin1,2021.2.3,59.96619406
,1 0 0 0 0 0 0 0 0 0,1,categoryB,j,genfile1.csv,0,,,,,,,,,0,1,1,0,0,42,42,19,,,,,,,,,,,,,,,,,,,,,,,,j,1,1.831713,,,,,,,,,,,,,,,,,,,,,,,888,2,2021_Sep_10_1053,joplin1,2021.2.3,59.96619406
,0 0 0 0 1 0 0 0 0 0,1,categoryB,j,genfile1.csv,0,,,,,,,,,0,1,1,0,0,43,43,17,,,,,,,,,,,,,,,,,,,,,,,,j,1,0.408303166,,,,,,,,,,,,,,,,,,,,,,,888,2,2021_Sep_10_1053,joplin1,2021.2.3,59.96619406
,1 1 1 1 0 1 0 0 0 1,6,categoryA,f,genfile1.csv,0,,,,,,,,,0,1,1,0,0,44,44,38,,,,,,,,,,,,,,,,,,,,,,,,f,1,0.26716675,,,,,,,,,,,,,,,,,,,,,,,888,2,2021_Sep_10_1053,joplin1,2021.2.3,59.96619406
,1 1 1 1 1 1 1 0 1 1,9,categoryA,f,genfile1.csv,0,,,,,,,,,0,1,1,0,0,45,45,54,,,,,,,,,,,,,,,,,,,,,,,,f,1,0.617432708,,,,,,,,,,,,,,,,,,,,,,,888,2,2021_Sep_10_1053,joplin1,2021.2.3,59.96619406
,0 0 1 0 0 0 1 1 1 0,4,categoryB,j,genfile1.csv,0,,,,,,,,,0,1,1,0,0,46,46,35,,,,,,,,,,,,,,,,,,,,,,,,f,0,0.715196708,,,,,,,,,,,,,,,,,,,,,,,888,2,2021_Sep_10_1053,joplin1,2021.2.3,59.96619406
,1 0 1 1 1 0 0 0 0 0,4,categoryB,j,genfile1.csv,0,,,,,,,,,0,1,1,0,0,47,47,32,,,,,,,,,,,,,,,,,,,,,,,,j,1,0.351098417,,,,,,,,,,,,,,,,,,,,,,,888,2,2021_Sep_10_1053,joplin1,2021.2.3,59.96619406
,1 1 0 1 1 1 1 1 1 1,9,categoryA,f,genfile1.csv,0,,,,,,,,,0,1,1,0,0,48,48,55,,,,,,,,,,,,,,,,,,,,,,,,f,1,0.36385225,,,,,,,,,,,,,,,,,,,,,,,888,2,2021_Sep_10_1053,joplin1,2021.2.3,59.96619406
,1 1 0 1 0 1 0 0 0 0,4,categoryB,j,genfile1.csv,0,,,,,,,,,0,1,1,0,0,49,49,33,,,,,,,,,,,,,,,,,,,,,,,,j,1,0.2428575,,,,,,,,,,,,,,,,,,,,,,,888,2,2021_Sep_10_1053,joplin1,2021.2.3,59.96619406
,1 1 1 1 1 1 1 1 1 1,10,categoryA,f,genfile1.csv,0,,,,,,,,,0,1,1,0,0,50,50,1,,,,,,,,,,,,,,,,,,,,,,,,f,1,0.017387,,,,,,,,,,,,,,,,,,,,,,,888,2,2021_Sep_10_1053,joplin1,2021.2.3,59.96619406
,0 1 0 0 1 0 0 0 0 1,3,categoryB,j,genfile1.csv,0,,,,,,,,,0,1,1,0,0,51,51,29,,,,,,,,,,,,,,,,,,,,,,,,j,1,0.0093725,,,,,,,,,,,,,,,,,,,,,,,888,2,2021_Sep_10_1053,joplin1,2021.2.3,59.96619406
,0 1 1 1 1 1 1 1 1 0,8,categoryA,f,genfile1.csv,1,,,,,,,,,0,1,1,0,0,52,52,9,,,,,,,,,,,,,,,,,,,,,,,,f,1,0.479686417,,,,,,,,,,,,,,,,,,,,,,,888,2,2021_Sep_10_1053,joplin1,2021.2.3,59.96619406
,1 1 1 0 1 0 1 1 1 0,7,categoryA,f,genfile1.csv,0,,,,,,,,,0,1,1,0,0,53,53,43,,,,,,,,,,,,,,,,,,,,,,,,f,1,0.378764875,,,,,,,,,,,,,,,,,,,,,,,888,2,2021_Sep_10_1053,joplin1,2021.2.3,59.96619406
,0 0 0 1 0 1 1 0 0 1,4,categoryB,j,genfile1.csv,0,,,,,,,,,0,1,1,0,0,54,54,31,,,,,,,,,,,,,,,,,,,,,,,,j,1,0.554639709,,,,,,,,,,,,,,,,,,,,,,,888,2,2021_Sep_10_1053,joplin1,2021.2.3,59.96619406
,0 0 0 1 0 0 0 1 0 0,2,categoryB,j,genfile1.csv,0,,,,,,,,,0,1,1,0,0,55,55,21,,,,,,,,,,,,,,,,,,,,,,,,j,1,0.2841765,,,,,,,,,,,,,,,,,,,,,,,888,2,2021_Sep_10_1053,joplin1,2021.2.3,59.96619406
,,,,,genfile1.csv,,,,,,,,,,0,1,1,0,,,,,,,,,,,,,,,,,,space,3.553891833,,,,,,,,,,,,,,,,,,,,,,,,,,,,,,,,,,888,2,2021_Sep_10_1053,joplin1,2021.2.3,59.96619406
,,,,,,,,,,,,,,,,,,,,,,,,,,,,,,,,,,,,,,,,,,,,,,,,,space,3.619883708,,,,,,,,,,,,,,,,,,,,,888,2,2021_Sep_10_1053,joplin1,2021.2.3,59.96619406
,,,,,,,,,,,,,,,,,,,,,,,,,,,,,,,,,,,,,,,,,,,,,,,,,,,return,24.72300792,,,,,,,,,,,,,,,,,,,888,2,2021_Sep_10_1053,joplin1,2021.2.3,59.96619406
,,,,,,,,,,,,,,,,,,,,,,,,,,,,,,,,,,,,,,,,,,,,,,,,,,,,,0.7,radio,0.3,Are you Hispanic/Latino?,0,None,None,no,2.188129208,,,,,,,,,,888,2,2021_Sep_10_1053,joplin1,2021.2.3,59.96619406
,,,,,,,,,,,,,,,,,,,,,,,,,,,,,,,,,,,,,,,,,,,,,,,,,,,,,0.7,radio,0.3,Are you an American Indian or Alaska Native?,1,None,None,no,3.510698917,,,,,,,,,,888,2,2021_Sep_10_1053,joplin1,2021.2.3,59.96619406
,,,,,,,,,,,,,,,,,,,,,,,,,,,,,,,,,,,,,,,,,,,,,,,,,,,,,0.7,radio,0.3,Are you Asian?,2,None,None,no,8.234556167,,,,,,,,,,888,2,2021_Sep_10_1053,joplin1,2021.2.3,59.96619406
,,,,,,,,,,,,,,,,,,,,,,,,,,,,,,,,,,,,,,,,,,,,,,,,,,,,,0.7,radio,0.3,Are you Black or African American?,3,None,None,no,9.137570417,,,,,,,,,,888,2,2021_Sep_10_1053,joplin1,2021.2.3,59.96619406
,,,,,,,,,,,,,,,,,,,,,,,,,,,,,,,,,,,,,,,,,,,,,,,,,,,,,0.7,radio,0.3,Are you a Native Hawaiian or other Pacific Islander?,4,None,None,no,6.956600667,,,,,,,,,,888,2,2021_Sep_10_1053,joplin1,2021.2.3,59.96619406
,,,,,,,,,,,,,,,,,,,,,,,,,,,,,,,,,,,,,,,,,,,,,,,,,,,,,0.7,radio,0.3,Are you White?,5,None,None,yes,7.752833209,,,,,,,,,,888,2,2021_Sep_10_1053,joplin1,2021.2.3,59.96619406
,,,,,,,,,,,,,,,,,,,,,,,,,,,,,,,,,,,,,,,,,,,,,,,,,,,,,0.85,radio,0.3,"Do you have any history of neurological issues such as stroke, head injury or a neurodegenerative disorder?",6,None,None,no,10.351564,,,,,,,,,,888,2,2021_Sep_10_1053,joplin1,2021.2.3,59.96619406
,,,,,,,,,,,,,,,,,,,,,,,,,,,,,,,,,,,,,,,,,,,,,,,,,,,,,,,,,,,,,,return,25.12466592,,,,,,,,888,2,2021_Sep_10_1053,joplin1,2021.2.3,59.96619406
,,,,,,,,,,,,,,,,,,,,,,,,,,,,,,,,,,,,,,,,,,,,,,,,,,,,,,,,,,,,,,,,return,6.227673875,,,,,,888,2,2021_Sep_10_1053,joplin1,2021.2.3,59.96619406
,,,,,,,,,,,,,,,,,,,,,,,,,,,,,,,,,,,,,,,,,,,,,,,,,,,,,,,,,,,,,,,,,,woman,20,y,2.332476625,,888,2,2021_Sep_10_1053,joplin1,2021.2.3,59.96619406
,,,,,,,,,,,,,,,,,,,,,,,,,,,,,,,,,,,,,,,,,,,,,,,,,,,,,,,,,,,,,,,,,,,,,,0,,,,,,