train_set,stim_id,sums_feat,category,correct_key,gen_file,train_item,train_runs.thisRepN,train_runs.thisTrialN,train_runs.thisN,train_runs.thisIndex,train_trials.thisRepN,train_trials.thisTrialN,train_trials.thisN,train_trials.thisIndex,test_runs.thisRepN,test_runs.thisTrialN,test_runs.thisN,test_runs.thisIndex,test_trials.thisRepN,test_trials.thisTrialN,test_trials.thisN,test_trials.thisIndex,welcome_key.keys,welcome_key.rt,welcome_key.started,welcome_key.stopped,train_inst1_key.keys,train_inst1_key.rt,train_inst2_key.keys,train_inst2_key.rt,train_begin_key.keys,train_begin_key.rt,train_key.keys,train_key.corr,train_key.rt,break_key.keys,break_key.rt,key_resp.keys,key_resp.rt,test_inst1_key.keys,test_inst1_key.rt,test_inst2_key.keys,test_inst2_key.rt,test_begin_key.keys,test_begin_key.rt,test_key.keys,test_key.corr,test_key.rt,test_end_key.keys,demo_inst1_key.keys,form.questionWidth,form.type,form.respWidth,form.itemText,form.index,form.font,form.markerColor,form.response,form.rt,form_key.keys,demo_inst2_key.keys,gender_string,age_string,demo4_key.keys,typedWord,participant,session,date,expName,psychopyVersion,frameRate
,,,,,,,,,,,,,,,,,,,,,,,space,44.77796033,123.0635557,None,,,,,,,,,,,,,,,,,,,,,,,,,,,,,,,,,,,,,,,,888,1,2021_Sep_07_1438,joplin1,2021.2.3,59.93522488
,,,,,,,,,,,,,,,,,,,,,,,,,,,f,19.50691425,,,,,,,,,,,,,,,,,,,,,,,,,,,,,,,,,,,,,,888,1,2021_Sep_07_1438,joplin1,2021.2.3,59.93522488
,,,,,,,,,,,,,,,,,,,,,,,,,,,,,space,10.77492383,,,,,,,,,,,,,,,,,,,,,,,,,,,,,,,,,,,,888,1,2021_Sep_07_1438,joplin1,2021.2.3,59.93522488
,,,,,,,,,,,,,,,,,,,,,,,,,,,,,,,space,57.84983663,,,,,,,,,,,,,,,,,,,,,,,,,,,,,,,,,,888,1,2021_Sep_07_1438,joplin1,2021.2.3,59.93522488
_train_cond.csv,1 1 0 0 0 0 0 0 1 1,4,categoryB,j,,,0,0,0,1,0,0,0,6,,,,,,,,,,,,,,,,,,,f,0,2.222034959,,,,,,,,,,,,,,,,,,,,,,,,,,,,,,,888,1,2021_Sep_07_1438,joplin1,2021.2.3,59.93522488
_train_cond.csv,0 1 0 0 0 0 0 0 1 0,2,categoryB,j,,,0,0,0,1,0,1,1,1,,,,,,,,,,,,,,,,,,,f,0,1.613408375,,,,,,,,,,,,,,,,,,,,,,,,,,,,,,,888,1,2021_Sep_07_1438,joplin1,2021.2.3,59.93522488
_train_cond.csv,0 0 0 1 0 0 1 0 0 0,2,categoryB,j,,,0,0,0,1,0,2,2,4,,,,,,,,,,,,,,,,,,,j,1,0.38452525,,,,,,,,,,,,,,,,,,,,,,,,,,,,,,,888,1,2021_Sep_07_1438,joplin1,2021.2.3,59.93522488
_train_cond.csv,1 1 0 1 0 0 1 0 1 1,6,categoryA,f,,,0,0,0,1,0,3,3,9,,,,,,,,,,,,,,,,,,,j,0,0.154165291,,,,,,,,,,,,,,,,,,,,,,,,,,,,,,,888,1,2021_Sep_07_1438,joplin1,2021.2.3,59.93522488
_train_cond.csv,1 1 1 0 0 0 0 1 1 1,6,categoryA,f,,,0,0,0,1,0,4,4,10,,,,,,,,,,,,,,,,,,,f,1,0.022846541,,,,,,,,,,,,,,,,,,,,,,,,,,,,,,,888,1,2021_Sep_07_1438,joplin1,2021.2.3,59.93522488
_train_cond.csv,0 1 1 1 1 1 1 1 1 0,8,categoryA,f,,,0,0,0,1,0,5,5,7,,,,,,,,,,,,,,,,,,,None,0,,,,,,,,,,,,,,,,,,,,,,,,,,,,,,,,888,1,2021_Sep_07_1438,joplin1,2021.2.3,59.93522488
_train_cond.csv,0 0 1 0 0 0 0 1 0 0,2,categoryB,j,,,0,0,0,1,0,6,6,5,,,,,,,,,,,,,,,,,,,j,1,0.960181167,,,,,,,,,,,,,,,,,,,,,,,,,,,,,,,888,1,2021_Sep_07_1438,joplin1,2021.2.3,59.93522488
_train_cond.csv,1 0 0 0 0 0 0 0 0 1,2,categoryB,j,,,0,0,0,1,0,7,7,0,,,,,,,,,,,,,,,,,,,f,0,0.349392917,,,,,,,,,,,,,,,,,,,,,,,,,,,,,,,888,1,2021_Sep_07_1438,joplin1,2021.2.3,59.93522488
_train_cond.csv,1 1 1 0 1 1 0 1 1 1,8,categoryA,f,,,0,0,0,1,0,8,8,11,,,,,,,,,,,,,,,,,,,f,1,0.236823791,,,,,,,,,,,,,,,,,,,,,,,,,,,,,,,888,1,2021_Sep_07_1438,joplin1,2021.2.3,59.93522488
_train_cond.csv,0 0 0 1 1 1 1 0 0 0,4,categoryB,j,,,0,0,0,1,0,9,9,3,,,,,,,,,,,,,,,,,,,f,0,0.406042625,,,,,,,,,,,,,,,,,,,,,,,,,,,,,,,888,1,2021_Sep_07_1438,joplin1,2021.2.3,59.93522488
_train_cond.csv,0 0 1 0 1 1 0 1 0 0,4,categoryB,j,,,0,0,0,1,0,10,10,2,,,,,,,,,,,,,,,,,,,j,1,0.826676083,,,,,,,,,,,,,,,,,,,,,,,,,,,,,,,888,1,2021_Sep_07_1438,joplin1,2021.2.3,59.93522488
_train_cond.csv,0 0 1 1 1 1 1 1 0 0,6,categoryA,f,,,0,0,0,1,0,11,11,13,,,,,,,,,,,,,,,,,,,j,0,0.700409834,,,,,,,,,,,,,,,,,,,,,,,,,,,,,,,888,1,2021_Sep_07_1438,joplin1,2021.2.3,59.93522488
_train_cond.csv,1 1 0 1 1 1 1 0 1 1,8,categoryA,f,,,0,0,0,1,0,12,12,12,,,,,,,,,,,,,,,,,,,f,1,0.170881791,,,,,,,,,,,,,,,,,,,,,,,,,,,,,,,888,1,2021_Sep_07_1438,joplin1,2021.2.3,59.93522488
_train_cond.csv,1 0 1 1 1 1 1 1 0 1,8,categoryA,f,,,0,0,0,1,0,13,13,8,,,,,,,,,,,,,,,,,,,j,0,0.822699709,,,,,,,,,,,,,,,,,,,,,,,,,,,,,,,888,1,2021_Sep_07_1438,joplin1,2021.2.3,59.93522488
_train_cond.csv,0 0 1 0 0 0 0 1 0 0,2,categoryB,j,,,0,0,0,1,1,0,14,5,,,,,,,,,,,,,,,,,,,j,1,0.323218875,,,,,,,,,,,,,,,,,,,,,,,,,,,,,,,888,1,2021_Sep_07_1438,joplin1,2021.2.3,59.93522488
_train_cond.csv,0 1 0 0 0 0 0 0 1 0,2,categoryB,j,,,0,0,0,1,1,1,15,1,,,,,,,,,,,,,,,,,,,j,1,0.691759166,,,,,,,,,,,,,,,,,,,,,,,,,,,,,,,888,1,2021_Sep_07_1438,joplin1,2021.2.3,59.93522488
_train_cond.csv,0 0 1 1 1 1 1 1 0 0,6,categoryA,f,,,0,0,0,1,1,2,16,13,,,,,,,,,,,,,,,,,,,j,0,0.103745292,,,,,,,,,,,,,,,,,,,,,,,,,,,,,,,888,1,2021_Sep_07_1438,joplin1,2021.2.3,59.93522488
_train_cond.csv,0 0 0 1 1 1 1 0 0 0,4,categoryB,j,,,0,0,0,1,1,3,17,3,,,,,,,,,,,,,,,,,,,j,1,0.279743,,,,,,,,,,,,,,,,,,,,,,,,,,,,,,,888,1,2021_Sep_07_1438,joplin1,2021.2.3,59.93522488
_train_cond.csv,0 0 0 1 0 0 1 0 0 0,2,categoryB,j,,,0,0,0,1,1,4,18,4,,,,,,,,,,,,,,,,,,,f,0,1.281597458,,,,,,,,,,,,,,,,,,,,,,,,,,,,,,,888,1,2021_Sep_07_1438,joplin1,2021.2.3,59.93522488
_train_cond.csv,1 1 1 0 0 0 0 1 1 1,6,categoryA,f,,,0,0,0,1,1,5,19,10,,,,,,,,,,,,,,,,,,,f,1,0.708216458,,,,,,,,,,,,,,,,,,,,,,,,,,,,,,,888,1,2021_Sep_07_1438,joplin1,2021.2.3,59.93522488
_train_cond.csv,1 1 1 0 1 1 0 1 1 1,8,categoryA,f,,,0,0,0,1,1,6,20,11,,,,,,,,,,,,,,,,,,,f,1,0.485649708,,,,,,,,,,,,,,,,,,,,,,,,,,,,,,,888,1,2021_Sep_07_1438,joplin1,2021.2.3,59.93522488
_train_cond.csv,1 1 0 1 0 0 1 0 1 1,6,categoryA,f,,,0,0,0,1,1,7,21,9,,,,,,,,,,,,,,,,,,,f,1,0.671960208,,,,,,,,,,,,,,,,,,,,,,,,,,,,,,,888,1,2021_Sep_07_1438,joplin1,2021.2.3,59.93522488
_train_cond.csv,1 1 0 1 1 1 1 0 1 1,8,categoryA,f,,,0,0,0,1,1,8,22,12,,,,,,,,,,,,,,,,,,,j,0,0.923405458,,,,,,,,,,,,,,,,,,,,,,,,,,,,,,,888,1,2021_Sep_07_1438,joplin1,2021.2.3,59.93522488
_train_cond.csv,0 0 1 0 1 1 0 1 0 0,4,categoryB,j,,,0,0,0,1,1,9,23,2,,,,,,,,,,,,,,,,,,,j,1,0.148076792,,,,,,,,,,,,,,,,,,,,,,,,,,,,,,,888,1,2021_Sep_07_1438,joplin1,2021.2.3,59.93522488
_train_cond.csv,1 0 1 1 1 1 1 1 0 1,8,categoryA,f,,,0,0,0,1,1,10,24,8,,,,,,,,,,,,,,,,,,,f,1,0.067615375,,,,,,,,,,,,,,,,,,,,,,,,,,,,,,,888,1,2021_Sep_07_1438,joplin1,2021.2.3,59.93522488
_train_cond.csv,0 1 1 1 1 1 1 1 1 0,8,categoryA,f,,,0,0,0,1,1,11,25,7,,,,,,,,,,,,,,,,,,,j,0,0.749822166,,,,,,,,,,,,,,,,,,,,,,,,,,,,,,,888,1,2021_Sep_07_1438,joplin1,2021.2.3,59.93522488
_train_cond.csv,1 0 0 0 0 0 0 0 0 1,2,categoryB,j,,,0,0,0,1,1,12,26,0,,,,,,,,,,,,,,,,,,,f,0,0.774069708,,,,,,,,,,,,,,,,,,,,,,,,,,,,,,,888,1,2021_Sep_07_1438,joplin1,2021.2.3,59.93522488
_train_cond.csv,1 1 0 0 0 0 0 0 1 1,4,categoryB,j,,,0,0,0,1,1,13,27,6,,,,,,,,,,,,,,,,,,,j,1,1.149301667,,,,,,,,,,,,,,,,,,,,,,,,,,,,,,,888,1,2021_Sep_07_1438,joplin1,2021.2.3,59.93522488
_train_cond.csv,1 1 1 0 0 0 0 1 1 1,6,categoryA,f,,,0,0,0,1,2,0,28,10,,,,,,,,,,,,,,,,,,,j,0,0.572632584,,,,,,,,,,,,,,,,,,,,,,,,,,,,,,,888,1,2021_Sep_07_1438,joplin1,2021.2.3,59.93522488
_train_cond.csv,0 0 0 1 1 1 1 0 0 0,4,categoryB,j,,,0,0,0,1,2,1,29,3,,,,,,,,,,,,,,,,,,,j,1,0.642846167,,,,,,,,,,,,,,,,,,,,,,,,,,,,,,,888,1,2021_Sep_07_1438,joplin1,2021.2.3,59.93522488
_train_cond.csv,0 0 1 0 1 1 0 1 0 0,4,categoryB,j,,,0,0,0,1,2,2,30,2,,,,,,,,,,,,,,,,,,,j,1,0.295159958,,,,,,,,,,,,,,,,,,,,,,,,,,,,,,,888,1,2021_Sep_07_1438,joplin1,2021.2.3,59.93522488
_train_cond.csv,0 0 1 0 0 0 0 1 0 0,2,categoryB,j,,,0,0,0,1,2,3,31,5,,,,,,,,,,,,,,,,,,,j,1,0.505272208,,,,,,,,,,,,,,,,,,,,,,,,,,,,,,,888,1,2021_Sep_07_1438,joplin1,2021.2.3,59.93522488
_train_cond.csv,1 1 1 0 1 1 0 1 1 1,8,categoryA,f,,,0,0,0,1,2,4,32,11,,,,,,,,,,,,,,,,,,,f,1,0.979279708,,,,,,,,,,,,,,,,,,,,,,,,,,,,,,,888,1,2021_Sep_07_1438,joplin1,2021.2.3,59.93522488
_train_cond.csv,0 1 0 0 0 0 0 0 1 0,2,categoryB,j,,,0,0,0,1,2,5,33,1,,,,,,,,,,,,,,,,,,,j,1,0.002476625,,,,,,,,,,,,,,,,,,,,,,,,,,,,,,,888,1,2021_Sep_07_1438,joplin1,2021.2.3,59.93522488
_train_cond.csv,0 1 1 1 1 1 1 1 1 0,8,categoryA,f,,,0,0,0,1,2,6,34,7,,,,,,,,,,,,,,,,,,,f,1,1.023363916,,,,,,,,,,,,,,,,,,,,,,,,,,,,,,,888,1,2021_Sep_07_1438,joplin1,2021.2.3,59.93522488
_train_cond.csv,0 0 1 1 1 1 1 1 0 0,6,categoryA,f,,,0,0,0,1,2,7,35,13,,,,,,,,,,,,,,,,,,,f,1,0.83583275,,,,,,,,,,,,,,,,,,,,,,,,,,,,,,,888,1,2021_Sep_07_1438,joplin1,2021.2.3,59.93522488
_train_cond.csv,1 1 0 0 0 0 0 0 1 1,4,categoryB,j,,,0,0,0,1,2,8,36,6,,,,,,,,,,,,,,,,,,,j,1,0.7025555,,,,,,,,,,,,,,,,,,,,,,,,,,,,,,,888,1,2021_Sep_07_1438,joplin1,2021.2.3,59.93522488
_train_cond.csv,1 1 0 1 0 0 1 0 1 1,6,categoryA,f,,,0,0,0,1,2,9,37,9,,,,,,,,,,,,,,,,,,,f,1,0.384679667,,,,,,,,,,,,,,,,,,,,,,,,,,,,,,,888,1,2021_Sep_07_1438,joplin1,2021.2.3,59.93522488
_train_cond.csv,1 0 1 1 1 1 1 1 0 1,8,categoryA,f,,,0,0,0,1,2,10,38,8,,,,,,,,,,,,,,,,,,,f,1,0.558644583,,,,,,,,,,,,,,,,,,,,,,,,,,,,,,,888,1,2021_Sep_07_1438,joplin1,2021.2.3,59.93522488
_train_cond.csv,0 0 0 1 0 0 1 0 0 0,2,categoryB,j,,,0,0,0,1,2,11,39,4,,,,,,,,,,,,,,,,,,,f,0,0.446623,,,,,,,,,,,,,,,,,,,,,,,,,,,,,,,888,1,2021_Sep_07_1438,joplin1,2021.2.3,59.93522488
_train_cond.csv,1 1 0 1 1 1 1 0 1 1,8,categoryA,f,,,0,0,0,1,2,12,40,12,,,,,,,,,,,,,,,,,,,j,0,0.92243125,,,,,,,,,,,,,,,,,,,,,,,,,,,,,,,888,1,2021_Sep_07_1438,joplin1,2021.2.3,59.93522488
_train_cond.csv,1 0 0 0 0 0 0 0 0 1,2,categoryB,j,,,0,0,0,1,2,13,41,0,,,,,,,,,,,,,,,,,,,f,0,0.530653917,,,,,,,,,,,,,,,,,,,,,,,,,,,,,,,888,1,2021_Sep_07_1438,joplin1,2021.2.3,59.93522488
_train_cond.csv,,,,,,,0,0,0,1,,,,,,,,,,,,,,,,,,,,,,,,,,space,5.027693917,,,,,,,,,,,,,,,,,,,,,,,,,,,,,888,1,2021_Sep_07_1438,joplin1,2021.2.3,59.93522488
_train_cond.csv,0 0 0 1 1 1 1 0 0 0,4,categoryB,j,,,0,1,1,5,0,0,0,3,,,,,,,,,,,,,,,,,,,j,1,0.782749792,,,,,,,,,,,,,,,,,,,,,,,,,,,,,,,888,1,2021_Sep_07_1438,joplin1,2021.2.3,59.93522488
_train_cond.csv,1 0 1 1 1 1 1 1 0 1,8,categoryA,f,,,0,1,1,5,0,1,1,8,,,,,,,,,,,,,,,,,,,j,0,0.357901417,,,,,,,,,,,,,,,,,,,,,,,,,,,,,,,888,1,2021_Sep_07_1438,joplin1,2021.2.3,59.93522488
_train_cond.csv,1 1 0 0 0 0 0 0 1 1,4,categoryB,j,,,0,1,1,5,0,2,2,6,,,,,,,,,,,,,,,,,,,f,0,0.461045833,,,,,,,,,,,,,,,,,,,,,,,,,,,,,,,888,1,2021_Sep_07_1438,joplin1,2021.2.3,59.93522488
_train_cond.csv,0 0 1 0 1 1 0 1 0 0,4,categoryB,j,,,0,1,1,5,0,3,3,2,,,,,,,,,,,,,,,,,,,f,0,0.887559542,,,,,,,,,,,,,,,,,,,,,,,,,,,,,,,888,1,2021_Sep_07_1438,joplin1,2021.2.3,59.93522488
_train_cond.csv,0 0 1 1 1 1 1 1 0 0,6,categoryA,f,,,0,1,1,5,0,4,4,13,,,,,,,,,,,,,,,,,,,j,0,0.370344209,,,,,,,,,,,,,,,,,,,,,,,,,,,,,,,888,1,2021_Sep_07_1438,joplin1,2021.2.3,59.93522488
_train_cond.csv,1 0 0 0 0 0 0 0 0 1,2,categoryB,j,,,0,1,1,5,0,5,5,0,,,,,,,,,,,,,,,,,,,j,1,0.719446625,,,,,,,,,,,,,,,,,,,,,,,,,,,,,,,888,1,2021_Sep_07_1438,joplin1,2021.2.3,59.93522488
_train_cond.csv,1 1 0 1 0 0 1 0 1 1,6,categoryA,f,,,0,1,1,5,0,6,6,9,,,,,,,,,,,,,,,,,,,f,1,0.640528333,,,,,,,,,,,,,,,,,,,,,,,,,,,,,,,888,1,2021_Sep_07_1438,joplin1,2021.2.3,59.93522488
_train_cond.csv,0 1 1 1 1 1 1 1 1 0,8,categoryA,f,,,0,1,1,5,0,7,7,7,,,,,,,,,,,,,,,,,,,f,1,0.308450625,,,,,,,,,,,,,,,,,,,,,,,,,,,,,,,888,1,2021_Sep_07_1438,joplin1,2021.2.3,59.93522488
_train_cond.csv,0 0 0 1 0 0 1 0 0 0,2,categoryB,j,,,0,1,1,5,0,8,8,4,,,,,,,,,,,,,,,,,,,j,1,0.454554,,,,,,,,,,,,,,,,,,,,,,,,,,,,,,,888,1,2021_Sep_07_1438,joplin1,2021.2.3,59.93522488
_train_cond.csv,0 1 0 0 0 0 0 0 1 0,2,categoryB,j,,,0,1,1,5,0,9,9,1,,,,,,,,,,,,,,,,,,,f,0,1.107010333,,,,,,,,,,,,,,,,,,,,,,,,,,,,,,,888,1,2021_Sep_07_1438,joplin1,2021.2.3,59.93522488
_train_cond.csv,1 1 1 0 0 0 0 1 1 1,6,categoryA,f,,,0,1,1,5,0,10,10,10,,,,,,,,,,,,,,,,,,,f,1,0.408850125,,,,,,,,,,,,,,,,,,,,,,,,,,,,,,,888,1,2021_Sep_07_1438,joplin1,2021.2.3,59.93522488
_train_cond.csv,1 1 0 1 1 1 1 0 1 1,8,categoryA,f,,,0,1,1,5,0,11,11,12,,,,,,,,,,,,,,,,,,,j,0,0.654569959,,,,,,,,,,,,,,,,,,,,,,,,,,,,,,,888,1,2021_Sep_07_1438,joplin1,2021.2.3,59.93522488
_train_cond.csv,1 1 1 0 1 1 0 1 1 1,8,categoryA,f,,,0,1,1,5,0,12,12,11,,,,,,,,,,,,,,,,,,,f,1,1.297989708,,,,,,,,,,,,,,,,,,,,,,,,,,,,,,,888,1,2021_Sep_07_1438,joplin1,2021.2.3,59.93522488
_train_cond.csv,0 0 1 0 0 0 0 1 0 0,2,categoryB,j,,,0,1,1,5,0,13,13,5,,,,,,,,,,,,,,,,,,,j,1,0.611175875,,,,,,,,,,,,,,,,,,,,,,,,,,,,,,,888,1,2021_Sep_07_1438,joplin1,2021.2.3,59.93522488
_train_cond.csv,0 0 1 1 1 1 1 1 0 0,6,categoryA,f,,,0,1,1,5,1,0,14,13,,,,,,,,,,,,,,,,,,,j,0,0.705086458,,,,,,,,,,,,,,,,,,,,,,,,,,,,,,,888,1,2021_Sep_07_1438,joplin1,2021.2.3,59.93522488
_train_cond.csv,1 0 0 0 0 0 0 0 0 1,2,categoryB,j,,,0,1,1,5,1,1,15,0,,,,,,,,,,,,,,,,,,,f,0,0.594420583,,,,,,,,,,,,,,,,,,,,,,,,,,,,,,,888,1,2021_Sep_07_1438,joplin1,2021.2.3,59.93522488
_train_cond.csv,1 0 1 1 1 1 1 1 0 1,8,categoryA,f,,,0,1,1,5,1,2,16,8,,,,,,,,,,,,,,,,,,,j,0,0.310636167,,,,,,,,,,,,,,,,,,,,,,,,,,,,,,,888,1,2021_Sep_07_1438,joplin1,2021.2.3,59.93522488
_train_cond.csv,0 0 1 0 1 1 0 1 0 0,4,categoryB,j,,,0,1,1,5,1,3,17,2,,,,,,,,,,,,,,,,,,,f,0,0.703585417,,,,,,,,,,,,,,,,,,,,,,,,,,,,,,,888,1,2021_Sep_07_1438,joplin1,2021.2.3,59.93522488
_train_cond.csv,1 1 0 1 0 0 1 0 1 1,6,categoryA,f,,,0,1,1,5,1,4,18,9,,,,,,,,,,,,,,,,,,,f,1,0.513416208,,,,,,,,,,,,,,,,,,,,,,,,,,,,,,,888,1,2021_Sep_07_1438,joplin1,2021.2.3,59.93522488
_train_cond.csv,1 1 0 0 0 0 0 0 1 1,4,categoryB,j,,,0,1,1,5,1,5,19,6,,,,,,,,,,,,,,,,,,,j,1,0.77075875,,,,,,,,,,,,,,,,,,,,,,,,,,,,,,,888,1,2021_Sep_07_1438,joplin1,2021.2.3,59.93522488
_train_cond.csv,0 0 0 1 1 1 1 0 0 0,4,categoryB,j,,,0,1,1,5,1,6,20,3,,,,,,,,,,,,,,,,,,,f,0,0.497313875,,,,,,,,,,,,,,,,,,,,,,,,,,,,,,,888,1,2021_Sep_07_1438,joplin1,2021.2.3,59.93522488
_train_cond.csv,1 1 1 0 0 0 0 1 1 1,6,categoryA,f,,,0,1,1,5,1,7,21,10,,,,,,,,,,,,,,,,,,,j,0,0.386849875,,,,,,,,,,,,,,,,,,,,,,,,,,,,,,,888,1,2021_Sep_07_1438,joplin1,2021.2.3,59.93522488
_train_cond.csv,0 1 0 0 0 0 0 0 1 0,2,categoryB,j,,,0,1,1,5,1,8,22,1,,,,,,,,,,,,,,,,,,,f,0,0.839708458,,,,,,,,,,,,,,,,,,,,,,,,,,,,,,,888,1,2021_Sep_07_1438,joplin1,2021.2.3,59.93522488
_train_cond.csv,0 0 1 0 0 0 0 1 0 0,2,categoryB,j,,,0,1,1,5,1,9,23,5,,,,,,,,,,,,,,,,,,,j,1,0.684325625,,,,,,,,,,,,,,,,,,,,,,,,,,,,,,,888,1,2021_Sep_07_1438,joplin1,2021.2.3,59.93522488
_train_cond.csv,0 1 1 1 1 1 1 1 1 0,8,categoryA,f,,,0,1,1,5,1,10,24,7,,,,,,,,,,,,,,,,,,,j,0,0.550483875,,,,,,,,,,,,,,,,,,,,,,,,,,,,,,,888,1,2021_Sep_07_1438,joplin1,2021.2.3,59.93522488
_train_cond.csv,1 1 1 0 1 1 0 1 1 1,8,categoryA,f,,,0,1,1,5,1,11,25,11,,,,,,,,,,,,,,,,,,,f,1,0.726748125,,,,,,,,,,,,,,,,,,,,,,,,,,,,,,,888,1,2021_Sep_07_1438,joplin1,2021.2.3,59.93522488
_train_cond.csv,1 1 0 1 1 1 1 0 1 1,8,categoryA,f,,,0,1,1,5,1,12,26,12,,,,,,,,,,,,,,,,,,,j,0,0.814462792,,,,,,,,,,,,,,,,,,,,,,,,,,,,,,,888,1,2021_Sep_07_1438,joplin1,2021.2.3,59.93522488
_train_cond.csv,0 0 0 1 0 0 1 0 0 0,2,categoryB,j,,,0,1,1,5,1,13,27,4,,,,,,,,,,,,,,,,,,,j,1,0.397012875,,,,,,,,,,,,,,,,,,,,,,,,,,,,,,,888,1,2021_Sep_07_1438,joplin1,2021.2.3,59.93522488
_train_cond.csv,1 0 1 1 1 1 1 1 0 1,8,categoryA,f,,,0,1,1,5,2,0,28,8,,,,,,,,,,,,,,,,,,,f,1,0.586427042,,,,,,,,,,,,,,,,,,,,,,,,,,,,,,,888,1,2021_Sep_07_1438,joplin1,2021.2.3,59.93522488
_train_cond.csv,0 1 1 1 1 1 1 1 1 0,8,categoryA,f,,,0,1,1,5,2,1,29,7,,,,,,,,,,,,,,,,,,,f,1,0.567789417,,,,,,,,,,,,,,,,,,,,,,,,,,,,,,,888,1,2021_Sep_07_1438,joplin1,2021.2.3,59.93522488
_train_cond.csv,1 1 1 0 1 1 0 1 1 1,8,categoryA,f,,,0,1,1,5,2,2,30,11,,,,,,,,,,,,,,,,,,,j,0,0.391211042,,,,,,,,,,,,,,,,,,,,,,,,,,,,,,,888,1,2021_Sep_07_1438,joplin1,2021.2.3,59.93522488
_train_cond.csv,0 1 0 0 0 0 0 0 1 0,2,categoryB,j,,,0,1,1,5,2,3,31,1,,,,,,,,,,,,,,,,,,,j,1,0.548003125,,,,,,,,,,,,,,,,,,,,,,,,,,,,,,,888,1,2021_Sep_07_1438,joplin1,2021.2.3,59.93522488
_train_cond.csv,1 1 0 1 1 1 1 0 1 1,8,categoryA,f,,,0,1,1,5,2,4,32,12,,,,,,,,,,,,,,,,,,,f,1,0.589312166,,,,,,,,,,,,,,,,,,,,,,,,,,,,,,,888,1,2021_Sep_07_1438,joplin1,2021.2.3,59.93522488
_train_cond.csv,1 1 0 0 0 0 0 0 1 1,4,categoryB,j,,,0,1,1,5,2,5,33,6,,,,,,,,,,,,,,,,,,,f,0,0.562435417,,,,,,,,,,,,,,,,,,,,,,,,,,,,,,,888,1,2021_Sep_07_1438,joplin1,2021.2.3,59.93522488
_train_cond.csv,0 0 1 0 0 0 0 1 0 0,2,categoryB,j,,,0,1,1,5,2,6,34,5,,,,,,,,,,,,,,,,,,,j,1,0.560711584,,,,,,,,,,,,,,,,,,,,,,,,,,,,,,,888,1,2021_Sep_07_1438,joplin1,2021.2.3,59.93522488
_train_cond.csv,1 1 0 1 0 0 1 0 1 1,6,categoryA,f,,,0,1,1,5,2,7,35,9,,,,,,,,,,,,,,,,,,,j,0,0.553355791,,,,,,,,,,,,,,,,,,,,,,,,,,,,,,,888,1,2021_Sep_07_1438,joplin1,2021.2.3,59.93522488
_train_cond.csv,0 0 1 0 1 1 0 1 0 0,4,categoryB,j,,,0,1,1,5,2,8,36,2,,,,,,,,,,,,,,,,,,,f,0,0.4553055,,,,,,,,,,,,,,,,,,,,,,,,,,,,,,,888,1,2021_Sep_07_1438,joplin1,2021.2.3,59.93522488
_train_cond.csv,1 1 1 0 0 0 0 1 1 1,6,categoryA,f,,,0,1,1,5,2,9,37,10,,,,,,,,,,,,,,,,,,,f,1,0.59510925,,,,,,,,,,,,,,,,,,,,,,,,,,,,,,,888,1,2021_Sep_07_1438,joplin1,2021.2.3,59.93522488
_train_cond.csv,0 0 0 1 1 1 1 0 0 0,4,categoryB,j,,,0,1,1,5,2,10,38,3,,,,,,,,,,,,,,,,,,,j,1,0.609484708,,,,,,,,,,,,,,,,,,,,,,,,,,,,,,,888,1,2021_Sep_07_1438,joplin1,2021.2.3,59.93522488
_train_cond.csv,0 0 0 1 0 0 1 0 0 0,2,categoryB,j,,,0,1,1,5,2,11,39,4,,,,,,,,,,,,,,,,,,,j,1,0.534535958,,,,,,,,,,,,,,,,,,,,,,,,,,,,,,,888,1,2021_Sep_07_1438,joplin1,2021.2.3,59.93522488
_train_cond.csv,0 0 1 1 1 1 1 1 0 0,6,categoryA,f,,,0,1,1,5,2,12,40,13,,,,,,,,,,,,,,,,,,,f,1,0.8072605,,,,,,,,,,,,,,,,,,,,,,,,,,,,,,,888,1,2021_Sep_07_1438,joplin1,2021.2.3,59.93522488
_train_cond.csv,1 0 0 0 0 0 0 0 0 1,2,categoryB,j,,,0,1,1,5,2,13,41,0,,,,,,,,,,,,,,,,,,,f,0,0.372130167,,,,,,,,,,,,,,,,,,,,,,,,,,,,,,,888,1,2021_Sep_07_1438,joplin1,2021.2.3,59.93522488
_train_cond.csv,,,,,,,0,1,1,5,,,,,,,,,,,,,,,,,,,,,,,,,,space,5.034506,,,,,,,,,,,,,,,,,,,,,,,,,,,,,888,1,2021_Sep_07_1438,joplin1,2021.2.3,59.93522488
_train_cond.csv,1 1 0 1 0 0 1 0 1 1,6,categoryA,f,,,0,2,2,6,0,0,0,9,,,,,,,,,,,,,,,,,,,j,0,1.268953708,,,,,,,,,,,,,,,,,,,,,,,,,,,,,,,888,1,2021_Sep_07_1438,joplin1,2021.2.3,59.93522488
_train_cond.csv,0 0 0 1 1 1 1 0 0 0,4,categoryB,j,,,0,2,2,6,0,1,1,3,,,,,,,,,,,,,,,,,,,j,1,0.375682209,,,,,,,,,,,,,,,,,,,,,,,,,,,,,,,888,1,2021_Sep_07_1438,joplin1,2021.2.3,59.93522488
_train_cond.csv,0 0 0 1 0 0 1 0 0 0,2,categoryB,j,,,0,2,2,6,0,2,2,4,,,,,,,,,,,,,,,,,,,j,1,0.597904791,,,,,,,,,,,,,,,,,,,,,,,,,,,,,,,888,1,2021_Sep_07_1438,joplin1,2021.2.3,59.93522488
_train_cond.csv,1 0 0 0 0 0 0 0 0 1,2,categoryB,j,,,0,2,2,6,0,3,3,0,,,,,,,,,,,,,,,,,,,f,0,0.381093958,,,,,,,,,,,,,,,,,,,,,,,,,,,,,,,888,1,2021_Sep_07_1438,joplin1,2021.2.3,59.93522488
_train_cond.csv,1 1 0 0 0 0 0 0 1 1,4,categoryB,j,,,0,2,2,6,0,4,4,6,,,,,,,,,,,,,,,,,,,j,1,0.771955167,,,,,,,,,,,,,,,,,,,,,,,,,,,,,,,888,1,2021_Sep_07_1438,joplin1,2021.2.3,59.93522488
_train_cond.csv,1 1 1 0 0 0 0 1 1 1,6,categoryA,f,,,0,2,2,6,0,5,5,10,,,,,,,,,,,,,,,,,,,f,1,0.474122333,,,,,,,,,,,,,,,,,,,,,,,,,,,,,,,888,1,2021_Sep_07_1438,joplin1,2021.2.3,59.93522488
_train_cond.csv,0 1 1 1 1 1 1 1 1 0,8,categoryA,f,,,0,2,2,6,0,6,6,7,,,,,,,,,,,,,,,,,,,j,0,0.140434709,,,,,,,,,,,,,,,,,,,,,,,,,,,,,,,888,1,2021_Sep_07_1438,joplin1,2021.2.3,59.93522488
_train_cond.csv,0 0 1 1 1 1 1 1 0 0,6,categoryA,f,,,0,2,2,6,0,7,7,13,,,,,,,,,,,,,,,,,,,j,0,0.571457042,,,,,,,,,,,,,,,,,,,,,,,,,,,,,,,888,1,2021_Sep_07_1438,joplin1,2021.2.3,59.93522488
_train_cond.csv,1 1 0 1 1 1 1 0 1 1,8,categoryA,f,,,0,2,2,6,0,8,8,12,,,,,,,,,,,,,,,,,,,f,1,1.004151584,,,,,,,,,,,,,,,,,,,,,,,,,,,,,,,888,1,2021_Sep_07_1438,joplin1,2021.2.3,59.93522488
_train_cond.csv,0 0 1 0 1 1 0 1 0 0,4,categoryB,j,,,0,2,2,6,0,9,9,2,,,,,,,,,,,,,,,,,,,f,0,0.512684292,,,,,,,,,,,,,,,,,,,,,,,,,,,,,,,888,1,2021_Sep_07_1438,joplin1,2021.2.3,59.93522488
_train_cond.csv,0 1 0 0 0 0 0 0 1 0,2,categoryB,j,,,0,2,2,6,0,10,10,1,,,,,,,,,,,,,,,,,,,j,1,0.505958833,,,,,,,,,,,,,,,,,,,,,,,,,,,,,,,888,1,2021_Sep_07_1438,joplin1,2021.2.3,59.93522488
_train_cond.csv,1 1 1 0 1 1 0 1 1 1,8,categoryA,f,,,0,2,2,6,0,11,11,11,,,,,,,,,,,,,,,,,,,f,1,1.234095042,,,,,,,,,,,,,,,,,,,,,,,,,,,,,,,888,1,2021_Sep_07_1438,joplin1,2021.2.3,59.93522488
_train_cond.csv,0 0 1 0 0 0 0 1 0 0,2,categoryB,j,,,0,2,2,6,0,12,12,5,,,,,,,,,,,,,,,,,,,j,1,0.652803292,,,,,,,,,,,,,,,,,,,,,,,,,,,,,,,888,1,2021_Sep_07_1438,joplin1,2021.2.3,59.93522488
_train_cond.csv,1 0 1 1 1 1 1 1 0 1,8,categoryA,f,,,0,2,2,6,0,13,13,8,,,,,,,,,,,,,,,,,,,j,0,0.920673333,,,,,,,,,,,,,,,,,,,,,,,,,,,,,,,888,1,2021_Sep_07_1438,joplin1,2021.2.3,59.93522488
_train_cond.csv,1 1 0 1 1 1 1 0 1 1,8,categoryA,f,,,0,2,2,6,1,0,14,12,,,,,,,,,,,,,,,,,,,f,1,0.769612625,,,,,,,,,,,,,,,,,,,,,,,,,,,,,,,888,1,2021_Sep_07_1438,joplin1,2021.2.3,59.93522488
_train_cond.csv,0 1 0 0 0 0 0 0 1 0,2,categoryB,j,,,0,2,2,6,1,1,15,1,,,,,,,,,,,,,,,,,,,j,1,0.75155175,,,,,,,,,,,,,,,,,,,,,,,,,,,,,,,888,1,2021_Sep_07_1438,joplin1,2021.2.3,59.93522488
_train_cond.csv,1 0 0 0 0 0 0 0 0 1,2,categoryB,j,,,0,2,2,6,1,2,16,0,,,,,,,,,,,,,,,,,,,j,1,0.327889541,,,,,,,,,,,,,,,,,,,,,,,,,,,,,,,888,1,2021_Sep_07_1438,joplin1,2021.2.3,59.93522488
_train_cond.csv,0 0 1 0 0 0 0 1 0 0,2,categoryB,j,,,0,2,2,6,1,3,17,5,,,,,,,,,,,,,,,,,,,f,0,0.353259667,,,,,,,,,,,,,,,,,,,,,,,,,,,,,,,888,1,2021_Sep_07_1438,joplin1,2021.2.3,59.93522488
_train_cond.csv,0 0 1 0 1 1 0 1 0 0,4,categoryB,j,,,0,2,2,6,1,4,18,2,,,,,,,,,,,,,,,,,,,j,1,0.744863666,,,,,,,,,,,,,,,,,,,,,,,,,,,,,,,888,1,2021_Sep_07_1438,joplin1,2021.2.3,59.93522488
_train_cond.csv,0 0 0 1 1 1 1 0 0 0,4,categoryB,j,,,0,2,2,6,1,5,19,3,,,,,,,,,,,,,,,,,,,j,1,0.598942208,,,,,,,,,,,,,,,,,,,,,,,,,,,,,,,888,1,2021_Sep_07_1438,joplin1,2021.2.3,59.93522488
_train_cond.csv,0 0 1 1 1 1 1 1 0 0,6,categoryA,f,,,0,2,2,6,1,6,20,13,,,,,,,,,,,,,,,,,,,j,0,0.413476375,,,,,,,,,,,,,,,,,,,,,,,,,,,,,,,888,1,2021_Sep_07_1438,joplin1,2021.2.3,59.93522488
_train_cond.csv,1 1 1 0 0 0 0 1 1 1,6,categoryA,f,,,0,2,2,6,1,7,21,10,,,,,,,,,,,,,,,,,,,j,0,0.451427875,,,,,,,,,,,,,,,,,,,,,,,,,,,,,,,888,1,2021_Sep_07_1438,joplin1,2021.2.3,59.93522488
_train_cond.csv,1 1 0 0 0 0 0 0 1 1,4,categoryB,j,,,0,2,2,6,1,8,22,6,,,,,,,,,,,,,,,,,,,f,0,0.687276208,,,,,,,,,,,,,,,,,,,,,,,,,,,,,,,888,1,2021_Sep_07_1438,joplin1,2021.2.3,59.93522488
_train_cond.csv,0 1 1 1 1 1 1 1 1 0,8,categoryA,f,,,0,2,2,6,1,9,23,7,,,,,,,,,,,,,,,,,,,f,1,0.56092,,,,,,,,,,,,,,,,,,,,,,,,,,,,,,,888,1,2021_Sep_07_1438,joplin1,2021.2.3,59.93522488
_train_cond.csv,0 0 0 1 0 0 1 0 0 0,2,categoryB,j,,,0,2,2,6,1,10,24,4,,,,,,,,,,,,,,,,,,,f,0,0.455110458,,,,,,,,,,,,,,,,,,,,,,,,,,,,,,,888,1,2021_Sep_07_1438,joplin1,2021.2.3,59.93522488
_train_cond.csv,1 1 1 0 1 1 0 1 1 1,8,categoryA,f,,,0,2,2,6,1,11,25,11,,,,,,,,,,,,,,,,,,,j,0,0.378849167,,,,,,,,,,,,,,,,,,,,,,,,,,,,,,,888,1,2021_Sep_07_1438,joplin1,2021.2.3,59.93522488
_train_cond.csv,1 1 0 1 0 0 1 0 1 1,6,categoryA,f,,,0,2,2,6,1,12,26,9,,,,,,,,,,,,,,,,,,,f,1,0.304521625,,,,,,,,,,,,,,,,,,,,,,,,,,,,,,,888,1,2021_Sep_07_1438,joplin1,2021.2.3,59.93522488
_train_cond.csv,1 0 1 1 1 1 1 1 0 1,8,categoryA,f,,,0,2,2,6,1,13,27,8,,,,,,,,,,,,,,,,,,,j,0,0.274396041,,,,,,,,,,,,,,,,,,,,,,,,,,,,,,,888,1,2021_Sep_07_1438,joplin1,2021.2.3,59.93522488
_train_cond.csv,0 0 0 1 0 0 1 0 0 0,2,categoryB,j,,,0,2,2,6,2,0,28,4,,,,,,,,,,,,,,,,,,,f,0,1.525083666,,,,,,,,,,,,,,,,,,,,,,,,,,,,,,,888,1,2021_Sep_07_1438,joplin1,2021.2.3,59.93522488
_train_cond.csv,1 1 1 0 1 1 0 1 1 1,8,categoryA,f,,,0,2,2,6,2,1,29,11,,,,,,,,,,,,,,,,,,,j,0,0.805319083,,,,,,,,,,,,,,,,,,,,,,,,,,,,,,,888,1,2021_Sep_07_1438,joplin1,2021.2.3,59.93522488
_train_cond.csv,0 0 0 1 1 1 1 0 0 0,4,categoryB,j,,,0,2,2,6,2,2,30,3,,,,,,,,,,,,,,,,,,,f,0,0.690120583,,,,,,,,,,,,,,,,,,,,,,,,,,,,,,,888,1,2021_Sep_07_1438,joplin1,2021.2.3,59.93522488
_train_cond.csv,1 0 1 1 1 1 1 1 0 1,8,categoryA,f,,,0,2,2,6,2,3,31,8,,,,,,,,,,,,,,,,,,,j,0,0.524883916,,,,,,,,,,,,,,,,,,,,,,,,,,,,,,,888,1,2021_Sep_07_1438,joplin1,2021.2.3,59.93522488
_train_cond.csv,1 1 0 0 0 0 0 0 1 1,4,categoryB,j,,,0,2,2,6,2,4,32,6,,,,,,,,,,,,,,,,,,,j,1,0.573289292,,,,,,,,,,,,,,,,,,,,,,,,,,,,,,,888,1,2021_Sep_07_1438,joplin1,2021.2.3,59.93522488
_train_cond.csv,1 0 0 0 0 0 0 0 0 1,2,categoryB,j,,,0,2,2,6,2,5,33,0,,,,,,,,,,,,,,,,,,,j,1,0.428039042,,,,,,,,,,,,,,,,,,,,,,,,,,,,,,,888,1,2021_Sep_07_1438,joplin1,2021.2.3,59.93522488
_train_cond.csv,1 1 0 1 0 0 1 0 1 1,6,categoryA,f,,,0,2,2,6,2,6,34,9,,,,,,,,,,,,,,,,,,,f,1,0.58501975,,,,,,,,,,,,,,,,,,,,,,,,,,,,,,,888,1,2021_Sep_07_1438,joplin1,2021.2.3,59.93522488
_train_cond.csv,1 1 1 0 0 0 0 1 1 1,6,categoryA,f,,,0,2,2,6,2,7,35,10,,,,,,,,,,,,,,,,,,,f,1,0.471166583,,,,,,,,,,,,,,,,,,,,,,,,,,,,,,,888,1,2021_Sep_07_1438,joplin1,2021.2.3,59.93522488
_train_cond.csv,0 1 1 1 1 1 1 1 1 0,8,categoryA,f,,,0,2,2,6,2,8,36,7,,,,,,,,,,,,,,,,,,,j,0,0.410449917,,,,,,,,,,,,,,,,,,,,,,,,,,,,,,,888,1,2021_Sep_07_1438,joplin1,2021.2.3,59.93522488
_train_cond.csv,0 0 1 1 1 1 1 1 0 0,6,categoryA,f,,,0,2,2,6,2,9,37,13,,,,,,,,,,,,,,,,,,,f,1,0.575587166,,,,,,,,,,,,,,,,,,,,,,,,,,,,,,,888,1,2021_Sep_07_1438,joplin1,2021.2.3,59.93522488
_train_cond.csv,1 1 0 1 1 1 1 0 1 1,8,categoryA,f,,,0,2,2,6,2,10,38,12,,,,,,,,,,,,,,,,,,,f,1,0.350394125,,,,,,,,,,,,,,,,,,,,,,,,,,,,,,,888,1,2021_Sep_07_1438,joplin1,2021.2.3,59.93522488
_train_cond.csv,0 0 1 0 0 0 0 1 0 0,2,categoryB,j,,,0,2,2,6,2,11,39,5,,,,,,,,,,,,,,,,,,,f,0,0.334680291,,,,,,,,,,,,,,,,,,,,,,,,,,,,,,,888,1,2021_Sep_07_1438,joplin1,2021.2.3,59.93522488
_train_cond.csv,0 0 1 0 1 1 0 1 0 0,4,categoryB,j,,,0,2,2,6,2,12,40,2,,,,,,,,,,,,,,,,,,,j,1,0.302982625,,,,,,,,,,,,,,,,,,,,,,,,,,,,,,,888,1,2021_Sep_07_1438,joplin1,2021.2.3,59.93522488
_train_cond.csv,0 1 0 0 0 0 0 0 1 0,2,categoryB,j,,,0,2,2,6,2,13,41,1,,,,,,,,,,,,,,,,,,,f,0,0.431397167,,,,,,,,,,,,,,,,,,,,,,,,,,,,,,,888,1,2021_Sep_07_1438,joplin1,2021.2.3,59.93522488
_train_cond.csv,,,,,,,0,2,2,6,,,,,,,,,,,,,,,,,,,,,,,,,,space,5.396516042,,,,,,,,,,,,,,,,,,,,,,,,,,,,,888,1,2021_Sep_07_1438,joplin1,2021.2.3,59.93522488
_train_cond.csv,1 0 1 1 1 1 1 1 0 1,8,categoryA,f,,,0,3,3,7,0,0,0,8,,,,,,,,,,,,,,,,,,,f,1,0.697504875,,,,,,,,,,,,,,,,,,,,,,,,,,,,,,,888,1,2021_Sep_07_1438,joplin1,2021.2.3,59.93522488
_train_cond.csv,0 0 1 0 0 0 0 1 0 0,2,categoryB,j,,,0,3,3,7,0,1,1,5,,,,,,,,,,,,,,,,,,,f,0,1.427071959,,,,,,,,,,,,,,,,,,,,,,,,,,,,,,,888,1,2021_Sep_07_1438,joplin1,2021.2.3,59.93522488
_train_cond.csv,1 1 1 0 0 0 0 1 1 1,6,categoryA,f,,,0,3,3,7,0,2,2,10,,,,,,,,,,,,,,,,,,,j,0,0.575214375,,,,,,,,,,,,,,,,,,,,,,,,,,,,,,,888,1,2021_Sep_07_1438,joplin1,2021.2.3,59.93522488
_train_cond.csv,1 1 1 0 1 1 0 1 1 1,8,categoryA,f,,,0,3,3,7,0,3,3,11,,,,,,,,,,,,,,,,,,,j,0,1.078005125,,,,,,,,,,,,,,,,,,,,,,,,,,,,,,,888,1,2021_Sep_07_1438,joplin1,2021.2.3,59.93522488
_train_cond.csv,1 1 0 1 1 1 1 0 1 1,8,categoryA,f,,,0,3,3,7,0,4,4,12,,,,,,,,,,,,,,,,,,,f,1,0.689431083,,,,,,,,,,,,,,,,,,,,,,,,,,,,,,,888,1,2021_Sep_07_1438,joplin1,2021.2.3,59.93522488
_train_cond.csv,1 0 0 0 0 0 0 0 0 1,2,categoryB,j,,,0,3,3,7,0,5,5,0,,,,,,,,,,,,,,,,,,,f,0,1.803208875,,,,,,,,,,,,,,,,,,,,,,,,,,,,,,,888,1,2021_Sep_07_1438,joplin1,2021.2.3,59.93522488
_train_cond.csv,0 0 0 1 1 1 1 0 0 0,4,categoryB,j,,,0,3,3,7,0,6,6,3,,,,,,,,,,,,,,,,,,,j,1,1.184507334,,,,,,,,,,,,,,,,,,,,,,,,,,,,,,,888,1,2021_Sep_07_1438,joplin1,2021.2.3,59.93522488
_train_cond.csv,1 1 0 0 0 0 0 0 1 1,4,categoryB,j,,,0,3,3,7,0,7,7,6,,,,,,,,,,,,,,,,,,,f,0,0.869791667,,,,,,,,,,,,,,,,,,,,,,,,,,,,,,,888,1,2021_Sep_07_1438,joplin1,2021.2.3,59.93522488
_train_cond.csv,0 0 1 0 1 1 0 1 0 0,4,categoryB,j,,,0,3,3,7,0,8,8,2,,,,,,,,,,,,,,,,,,,j,1,0.728377541,,,,,,,,,,,,,,,,,,,,,,,,,,,,,,,888,1,2021_Sep_07_1438,joplin1,2021.2.3,59.93522488
_train_cond.csv,0 1 1 1 1 1 1 1 1 0,8,categoryA,f,,,0,3,3,7,0,9,9,7,,,,,,,,,,,,,,,,,,,j,0,0.51306275,,,,,,,,,,,,,,,,,,,,,,,,,,,,,,,888,1,2021_Sep_07_1438,joplin1,2021.2.3,59.93522488
_train_cond.csv,0 0 0 1 0 0 1 0 0 0,2,categoryB,j,,,0,3,3,7,0,10,10,4,,,,,,,,,,,,,,,,,,,j,1,0.994915334,,,,,,,,,,,,,,,,,,,,,,,,,,,,,,,888,1,2021_Sep_07_1438,joplin1,2021.2.3,59.93522488
_train_cond.csv,0 0 1 1 1 1 1 1 0 0,6,categoryA,f,,,0,3,3,7,0,11,11,13,,,,,,,,,,,,,,,,,,,f,1,0.415478083,,,,,,,,,,,,,,,,,,,,,,,,,,,,,,,888,1,2021_Sep_07_1438,joplin1,2021.2.3,59.93522488
_train_cond.csv,1 1 0 1 0 0 1 0 1 1,6,categoryA,f,,,0,3,3,7,0,12,12,9,,,,,,,,,,,,,,,,,,,j,0,0.803800125,,,,,,,,,,,,,,,,,,,,,,,,,,,,,,,888,1,2021_Sep_07_1438,joplin1,2021.2.3,59.93522488
_train_cond.csv,0 1 0 0 0 0 0 0 1 0,2,categoryB,j,,,0,3,3,7,0,13,13,1,,,,,,,,,,,,,,,,,,,f,0,0.40116875,,,,,,,,,,,,,,,,,,,,,,,,,,,,,,,888,1,2021_Sep_07_1438,joplin1,2021.2.3,59.93522488
_train_cond.csv,0 0 1 1 1 1 1 1 0 0,6,categoryA,f,,,0,3,3,7,1,0,14,13,,,,,,,,,,,,,,,,,,,j,0,0.708620875,,,,,,,,,,,,,,,,,,,,,,,,,,,,,,,888,1,2021_Sep_07_1438,joplin1,2021.2.3,59.93522488
_train_cond.csv,0 0 0 1 1 1 1 0 0 0,4,categoryB,j,,,0,3,3,7,1,1,15,3,,,,,,,,,,,,,,,,,,,f,0,0.343121083,,,,,,,,,,,,,,,,,,,,,,,,,,,,,,,888,1,2021_Sep_07_1438,joplin1,2021.2.3,59.93522488
_train_cond.csv,1 1 0 1 1 1 1 0 1 1,8,categoryA,f,,,0,3,3,7,1,2,16,12,,,,,,,,,,,,,,,,,,,j,0,0.371746,,,,,,,,,,,,,,,,,,,,,,,,,,,,,,,888,1,2021_Sep_07_1438,joplin1,2021.2.3,59.93522488
_train_cond.csv,0 0 0 1 0 0 1 0 0 0,2,categoryB,j,,,0,3,3,7,1,3,17,4,,,,,,,,,,,,,,,,,,,f,0,0.418984084,,,,,,,,,,,,,,,,,,,,,,,,,,,,,,,888,1,2021_Sep_07_1438,joplin1,2021.2.3,59.93522488
_train_cond.csv,1 1 0 0 0 0 0 0 1 1,4,categoryB,j,,,0,3,3,7,1,4,18,6,,,,,,,,,,,,,,,,,,,f,0,1.120156083,,,,,,,,,,,,,,,,,,,,,,,,,,,,,,,888,1,2021_Sep_07_1438,joplin1,2021.2.3,59.93522488
_train_cond.csv,1 0 1 1 1 1 1 1 0 1,8,categoryA,f,,,0,3,3,7,1,5,19,8,,,,,,,,,,,,,,,,,,,f,1,0.752706875,,,,,,,,,,,,,,,,,,,,,,,,,,,,,,,888,1,2021_Sep_07_1438,joplin1,2021.2.3,59.93522488
_train_cond.csv,1 0 0 0 0 0 0 0 0 1,2,categoryB,j,,,0,3,3,7,1,6,20,0,,,,,,,,,,,,,,,,,,,f,0,0.91144725,,,,,,,,,,,,,,,,,,,,,,,,,,,,,,,888,1,2021_Sep_07_1438,joplin1,2021.2.3,59.93522488
_train_cond.csv,1 1 0 1 0 0 1 0 1 1,6,categoryA,f,,,0,3,3,7,1,7,21,9,,,,,,,,,,,,,,,,,,,j,0,0.400595125,,,,,,,,,,,,,,,,,,,,,,,,,,,,,,,888,1,2021_Sep_07_1438,joplin1,2021.2.3,59.93522488
_train_cond.csv,1 1 1 0 0 0 0 1 1 1,6,categoryA,f,,,0,3,3,7,1,8,22,10,,,,,,,,,,,,,,,,,,,f,1,1.549405834,,,,,,,,,,,,,,,,,,,,,,,,,,,,,,,888,1,2021_Sep_07_1438,joplin1,2021.2.3,59.93522488
_train_cond.csv,1 1 1 0 1 1 0 1 1 1,8,categoryA,f,,,0,3,3,7,1,9,23,11,,,,,,,,,,,,,,,,,,,j,0,0.886251125,,,,,,,,,,,,,,,,,,,,,,,,,,,,,,,888,1,2021_Sep_07_1438,joplin1,2021.2.3,59.93522488
_train_cond.csv,0 1 1 1 1 1 1 1 1 0,8,categoryA,f,,,0,3,3,7,1,10,24,7,,,,,,,,,,,,,,,,,,,j,0,0.630168583,,,,,,,,,,,,,,,,,,,,,,,,,,,,,,,888,1,2021_Sep_07_1438,joplin1,2021.2.3,59.93522488
_train_cond.csv,0 0 1 0 1 1 0 1 0 0,4,categoryB,j,,,0,3,3,7,1,11,25,2,,,,,,,,,,,,,,,,,,,f,0,0.72403125,,,,,,,,,,,,,,,,,,,,,,,,,,,,,,,888,1,2021_Sep_07_1438,joplin1,2021.2.3,59.93522488
_train_cond.csv,0 0 1 0 0 0 0 1 0 0,2,categoryB,j,,,0,3,3,7,1,12,26,5,,,,,,,,,,,,,,,,,,,j,1,0.900184791,,,,,,,,,,,,,,,,,,,,,,,,,,,,,,,888,1,2021_Sep_07_1438,joplin1,2021.2.3,59.93522488
_train_cond.csv,0 1 0 0 0 0 0 0 1 0,2,categoryB,j,,,0,3,3,7,1,13,27,1,,,,,,,,,,,,,,,,,,,j,1,0.389377125,,,,,,,,,,,,,,,,,,,,,,,,,,,,,,,888,1,2021_Sep_07_1438,joplin1,2021.2.3,59.93522488
_train_cond.csv,1 1 0 0 0 0 0 0 1 1,4,categoryB,j,,,0,3,3,7,2,0,28,6,,,,,,,,,,,,,,,,,,,j,1,1.092039584,,,,,,,,,,,,,,,,,,,,,,,,,,,,,,,888,1,2021_Sep_07_1438,joplin1,2021.2.3,59.93522488
_train_cond.csv,0 0 1 0 1 1 0 1 0 0,4,categoryB,j,,,0,3,3,7,2,1,29,2,,,,,,,,,,,,,,,,,,,f,0,0.790141792,,,,,,,,,,,,,,,,,,,,,,,,,,,,,,,888,1,2021_Sep_07_1438,joplin1,2021.2.3,59.93522488
_train_cond.csv,0 0 1 0 0 0 0 1 0 0,2,categoryB,j,,,0,3,3,7,2,2,30,5,,,,,,,,,,,,,,,,,,,j,1,0.492960833,,,,,,,,,,,,,,,,,,,,,,,,,,,,,,,888,1,2021_Sep_07_1438,joplin1,2021.2.3,59.93522488
_train_cond.csv,1 0 1 1 1 1 1 1 0 1,8,categoryA,f,,,0,3,3,7,2,3,31,8,,,,,,,,,,,,,,,,,,,f,1,0.631089208,,,,,,,,,,,,,,,,,,,,,,,,,,,,,,,888,1,2021_Sep_07_1438,joplin1,2021.2.3,59.93522488
_train_cond.csv,1 1 0 1 0 0 1 0 1 1,6,categoryA,f,,,0,3,3,7,2,4,32,9,,,,,,,,,,,,,,,,,,,j,0,0.347436875,,,,,,,,,,,,,,,,,,,,,,,,,,,,,,,888,1,2021_Sep_07_1438,joplin1,2021.2.3,59.93522488
_train_cond.csv,0 0 0 1 0 0 1 0 0 0,2,categoryB,j,,,0,3,3,7,2,5,33,4,,,,,,,,,,,,,,,,,,,f,0,0.946637667,,,,,,,,,,,,,,,,,,,,,,,,,,,,,,,888,1,2021_Sep_07_1438,joplin1,2021.2.3,59.93522488
_train_cond.csv,1 0 0 0 0 0 0 0 0 1,2,categoryB,j,,,0,3,3,7,2,6,34,0,,,,,,,,,,,,,,,,,,,j,1,0.5375775,,,,,,,,,,,,,,,,,,,,,,,,,,,,,,,888,1,2021_Sep_07_1438,joplin1,2021.2.3,59.93522488
_train_cond.csv,1 1 1 0 0 0 0 1 1 1,6,categoryA,f,,,0,3,3,7,2,7,35,10,,,,,,,,,,,,,,,,,,,j,0,0.393582542,,,,,,,,,,,,,,,,,,,,,,,,,,,,,,,888,1,2021_Sep_07_1438,joplin1,2021.2.3,59.93522488
_train_cond.csv,0 0 1 1 1 1 1 1 0 0,6,categoryA,f,,,0,3,3,7,2,8,36,13,,,,,,,,,,,,,,,,,,,j,0,0.598841875,,,,,,,,,,,,,,,,,,,,,,,,,,,,,,,888,1,2021_Sep_07_1438,joplin1,2021.2.3,59.93522488
_train_cond.csv,0 1 0 0 0 0 0 0 1 0,2,categoryB,j,,,0,3,3,7,2,9,37,1,,,,,,,,,,,,,,,,,,,j,1,0.81476875,,,,,,,,,,,,,,,,,,,,,,,,,,,,,,,888,1,2021_Sep_07_1438,joplin1,2021.2.3,59.93522488
_train_cond.csv,0 0 0 1 1 1 1 0 0 0,4,categoryB,j,,,0,3,3,7,2,10,38,3,,,,,,,,,,,,,,,,,,,f,0,0.307272083,,,,,,,,,,,,,,,,,,,,,,,,,,,,,,,888,1,2021_Sep_07_1438,joplin1,2021.2.3,59.93522488
_train_cond.csv,1 1 0 1 1 1 1 0 1 1,8,categoryA,f,,,0,3,3,7,2,11,39,12,,,,,,,,,,,,,,,,,,,j,0,1.141097417,,,,,,,,,,,,,,,,,,,,,,,,,,,,,,,888,1,2021_Sep_07_1438,joplin1,2021.2.3,59.93522488
_train_cond.csv,0 1 1 1 1 1 1 1 1 0,8,categoryA,f,,,0,3,3,7,2,12,40,7,,,,,,,,,,,,,,,,,,,f,1,0.443968333,,,,,,,,,,,,,,,,,,,,,,,,,,,,,,,888,1,2021_Sep_07_1438,joplin1,2021.2.3,59.93522488
_train_cond.csv,1 1 1 0 1 1 0 1 1 1,8,categoryA,f,,,0,3,3,7,2,13,41,11,,,,,,,,,,,,,,,,,,,j,0,0.760425583,,,,,,,,,,,,,,,,,,,,,,,,,,,,,,,888,1,2021_Sep_07_1438,joplin1,2021.2.3,59.93522488
_train_cond.csv,,,,,,,0,3,3,7,,,,,,,,,,,,,,,,,,,,,,,,,,space,8.135612792,,,,,,,,,,,,,,,,,,,,,,,,,,,,,888,1,2021_Sep_07_1438,joplin1,2021.2.3,59.93522488
_train_cond.csv,1 1 1 0 0 0 0 1 1 1,6,categoryA,f,,,0,4,4,2,0,0,0,10,,,,,,,,,,,,,,,,,,,j,0,0.228711208,,,,,,,,,,,,,,,,,,,,,,,,,,,,,,,888,1,2021_Sep_07_1438,joplin1,2021.2.3,59.93522488
_train_cond.csv,1 1 0 1 1 1 1 0 1 1,8,categoryA,f,,,0,4,4,2,0,1,1,12,,,,,,,,,,,,,,,,,,,f,1,0.441295583,,,,,,,,,,,,,,,,,,,,,,,,,,,,,,,888,1,2021_Sep_07_1438,joplin1,2021.2.3,59.93522488
_train_cond.csv,1 1 0 1 0 0 1 0 1 1,6,categoryA,f,,,0,4,4,2,0,2,2,9,,,,,,,,,,,,,,,,,,,f,1,0.33350725,,,,,,,,,,,,,,,,,,,,,,,,,,,,,,,888,1,2021_Sep_07_1438,joplin1,2021.2.3,59.93522488
_train_cond.csv,0 1 0 0 0 0 0 0 1 0,2,categoryB,j,,,0,4,4,2,0,3,3,1,,,,,,,,,,,,,,,,,,,j,1,0.591135291,,,,,,,,,,,,,,,,,,,,,,,,,,,,,,,888,1,2021_Sep_07_1438,joplin1,2021.2.3,59.93522488
_train_cond.csv,0 0 1 1 1 1 1 1 0 0,6,categoryA,f,,,0,4,4,2,0,4,4,13,,,,,,,,,,,,,,,,,,,j,0,0.924926708,,,,,,,,,,,,,,,,,,,,,,,,,,,,,,,888,1,2021_Sep_07_1438,joplin1,2021.2.3,59.93522488
_train_cond.csv,1 1 1 0 1 1 0 1 1 1,8,categoryA,f,,,0,4,4,2,0,5,5,11,,,,,,,,,,,,,,,,,,,f,1,0.725435375,,,,,,,,,,,,,,,,,,,,,,,,,,,,,,,888,1,2021_Sep_07_1438,joplin1,2021.2.3,59.93522488
_train_cond.csv,0 0 1 0 1 1 0 1 0 0,4,categoryB,j,,,0,4,4,2,0,6,6,2,,,,,,,,,,,,,,,,,,,j,1,0.892789166,,,,,,,,,,,,,,,,,,,,,,,,,,,,,,,888,1,2021_Sep_07_1438,joplin1,2021.2.3,59.93522488
_train_cond.csv,0 0 0 1 0 0 1 0 0 0,2,categoryB,j,,,0,4,4,2,0,7,7,4,,,,,,,,,,,,,,,,,,,f,0,0.534320792,,,,,,,,,,,,,,,,,,,,,,,,,,,,,,,888,1,2021_Sep_07_1438,joplin1,2021.2.3,59.93522488
_train_cond.csv,1 1 0 0 0 0 0 0 1 1,4,categoryB,j,,,0,4,4,2,0,8,8,6,,,,,,,,,,,,,,,,,,,j,1,1.047632375,,,,,,,,,,,,,,,,,,,,,,,,,,,,,,,888,1,2021_Sep_07_1438,joplin1,2021.2.3,59.93522488
_train_cond.csv,0 0 1 0 0 0 0 1 0 0,2,categoryB,j,,,0,4,4,2,0,9,9,5,,,,,,,,,,,,,,,,,,,j,1,0.700067667,,,,,,,,,,,,,,,,,,,,,,,,,,,,,,,888,1,2021_Sep_07_1438,joplin1,2021.2.3,59.93522488
_train_cond.csv,1 0 1 1 1 1 1 1 0 1,8,categoryA,f,,,0,4,4,2,0,10,10,8,,,,,,,,,,,,,,,,,,,f,1,0.3660935,,,,,,,,,,,,,,,,,,,,,,,,,,,,,,,888,1,2021_Sep_07_1438,joplin1,2021.2.3,59.93522488
_train_cond.csv,0 0 0 1 1 1 1 0 0 0,4,categoryB,j,,,0,4,4,2,0,11,11,3,,,,,,,,,,,,,,,,,,,j,1,0.734289417,,,,,,,,,,,,,,,,,,,,,,,,,,,,,,,888,1,2021_Sep_07_1438,joplin1,2021.2.3,59.93522488
_train_cond.csv,1 0 0 0 0 0 0 0 0 1,2,categoryB,j,,,0,4,4,2,0,12,12,0,,,,,,,,,,,,,,,,,,,f,0,0.486598875,,,,,,,,,,,,,,,,,,,,,,,,,,,,,,,888,1,2021_Sep_07_1438,joplin1,2021.2.3,59.93522488
_train_cond.csv,0 1 1 1 1 1 1 1 1 0,8,categoryA,f,,,0,4,4,2,0,13,13,7,,,,,,,,,,,,,,,,,,,j,0,0.68906875,,,,,,,,,,,,,,,,,,,,,,,,,,,,,,,888,1,2021_Sep_07_1438,joplin1,2021.2.3,59.93522488
_train_cond.csv,1 1 0 1 1 1 1 0 1 1,8,categoryA,f,,,0,4,4,2,1,0,14,12,,,,,,,,,,,,,,,,,,,j,0,0.017624667,,,,,,,,,,,,,,,,,,,,,,,,,,,,,,,888,1,2021_Sep_07_1438,joplin1,2021.2.3,59.93522488
_train_cond.csv,1 1 0 0 0 0 0 0 1 1,4,categoryB,j,,,0,4,4,2,1,1,15,6,,,,,,,,,,,,,,,,,,,f,0,0.502423167,,,,,,,,,,,,,,,,,,,,,,,,,,,,,,,888,1,2021_Sep_07_1438,joplin1,2021.2.3,59.93522488
_train_cond.csv,0 0 1 0 1 1 0 1 0 0,4,categoryB,j,,,0,4,4,2,1,2,16,2,,,,,,,,,,,,,,,,,,,j,1,0.336122333,,,,,,,,,,,,,,,,,,,,,,,,,,,,,,,888,1,2021_Sep_07_1438,joplin1,2021.2.3,59.93522488
_train_cond.csv,1 1 1 0 1 1 0 1 1 1,8,categoryA,f,,,0,4,4,2,1,3,17,11,,,,,,,,,,,,,,,,,,,f,1,0.575997708,,,,,,,,,,,,,,,,,,,,,,,,,,,,,,,888,1,2021_Sep_07_1438,joplin1,2021.2.3,59.93522488
_train_cond.csv,0 0 0 1 1 1 1 0 0 0,4,categoryB,j,,,0,4,4,2,1,4,18,3,,,,,,,,,,,,,,,,,,,j,1,1.270369875,,,,,,,,,,,,,,,,,,,,,,,,,,,,,,,888,1,2021_Sep_07_1438,joplin1,2021.2.3,59.93522488
_train_cond.csv,0 0 0 1 0 0 1 0 0 0,2,categoryB,j,,,0,4,4,2,1,5,19,4,,,,,,,,,,,,,,,,,,,f,0,1.256658708,,,,,,,,,,,,,,,,,,,,,,,,,,,,,,,888,1,2021_Sep_07_1438,joplin1,2021.2.3,59.93522488
_train_cond.csv,1 1 1 0 0 0 0 1 1 1,6,categoryA,f,,,0,4,4,2,1,6,20,10,,,,,,,,,,,,,,,,,,,j,0,0.396313958,,,,,,,,,,,,,,,,,,,,,,,,,,,,,,,888,1,2021_Sep_07_1438,joplin1,2021.2.3,59.93522488
_train_cond.csv,0 0 1 0 0 0 0 1 0 0,2,categoryB,j,,,0,4,4,2,1,7,21,5,,,,,,,,,,,,,,,,,,,f,0,0.673336291,,,,,,,,,,,,,,,,,,,,,,,,,,,,,,,888,1,2021_Sep_07_1438,joplin1,2021.2.3,59.93522488
_train_cond.csv,1 1 0 1 0 0 1 0 1 1,6,categoryA,f,,,0,4,4,2,1,8,22,9,,,,,,,,,,,,,,,,,,,j,0,1.67624275,,,,,,,,,,,,,,,,,,,,,,,,,,,,,,,888,1,2021_Sep_07_1438,joplin1,2021.2.3,59.93522488
_train_cond.csv,0 1 0 0 0 0 0 0 1 0,2,categoryB,j,,,0,4,4,2,1,9,23,1,,,,,,,,,,,,,,,,,,,f,0,1.141064625,,,,,,,,,,,,,,,,,,,,,,,,,,,,,,,888,1,2021_Sep_07_1438,joplin1,2021.2.3,59.93522488
_train_cond.csv,0 0 1 1 1 1 1 1 0 0,6,categoryA,f,,,0,4,4,2,1,10,24,13,,,,,,,,,,,,,,,,,,,j,0,0.709050667,,,,,,,,,,,,,,,,,,,,,,,,,,,,,,,888,1,2021_Sep_07_1438,joplin1,2021.2.3,59.93522488
_train_cond.csv,1 0 1 1 1 1 1 1 0 1,8,categoryA,f,,,0,4,4,2,1,11,25,8,,,,,,,,,,,,,,,,,,,f,1,0.694644375,,,,,,,,,,,,,,,,,,,,,,,,,,,,,,,888,1,2021_Sep_07_1438,joplin1,2021.2.3,59.93522488
_train_cond.csv,1 0 0 0 0 0 0 0 0 1,2,categoryB,j,,,0,4,4,2,1,12,26,0,,,,,,,,,,,,,,,,,,,f,0,1.191913167,,,,,,,,,,,,,,,,,,,,,,,,,,,,,,,888,1,2021_Sep_07_1438,joplin1,2021.2.3,59.93522488
_train_cond.csv,0 1 1 1 1 1 1 1 1 0,8,categoryA,f,,,0,4,4,2,1,13,27,7,,,,,,,,,,,,,,,,,,,f,1,1.158440833,,,,,,,,,,,,,,,,,,,,,,,,,,,,,,,888,1,2021_Sep_07_1438,joplin1,2021.2.3,59.93522488
_train_cond.csv,0 1 1 1 1 1 1 1 1 0,8,categoryA,f,,,0,4,4,2,2,0,28,7,,,,,,,,,,,,,,,,,,,f,1,0.582225041,,,,,,,,,,,,,,,,,,,,,,,,,,,,,,,888,1,2021_Sep_07_1438,joplin1,2021.2.3,59.93522488
_train_cond.csv,0 0 1 0 1 1 0 1 0 0,4,categoryB,j,,,0,4,4,2,2,1,29,2,,,,,,,,,,,,,,,,,,,f,0,0.30889625,,,,,,,,,,,,,,,,,,,,,,,,,,,,,,,888,1,2021_Sep_07_1438,joplin1,2021.2.3,59.93522488
_train_cond.csv,1 1 1 0 0 0 0 1 1 1,6,categoryA,f,,,0,4,4,2,2,2,30,10,,,,,,,,,,,,,,,,,,,f,1,0.7036375,,,,,,,,,,,,,,,,,,,,,,,,,,,,,,,888,1,2021_Sep_07_1438,joplin1,2021.2.3,59.93522488
_train_cond.csv,0 0 1 0 0 0 0 1 0 0,2,categoryB,j,,,0,4,4,2,2,3,31,5,,,,,,,,,,,,,,,,,,,f,0,1.064095083,,,,,,,,,,,,,,,,,,,,,,,,,,,,,,,888,1,2021_Sep_07_1438,joplin1,2021.2.3,59.93522488
_train_cond.csv,0 1 0 0 0 0 0 0 1 0,2,categoryB,j,,,0,4,4,2,2,4,32,1,,,,,,,,,,,,,,,,,,,f,0,0.546178625,,,,,,,,,,,,,,,,,,,,,,,,,,,,,,,888,1,2021_Sep_07_1438,joplin1,2021.2.3,59.93522488
_train_cond.csv,1 1 0 1 1 1 1 0 1 1,8,categoryA,f,,,0,4,4,2,2,5,33,12,,,,,,,,,,,,,,,,,,,j,0,0.467284041,,,,,,,,,,,,,,,,,,,,,,,,,,,,,,,888,1,2021_Sep_07_1438,joplin1,2021.2.3,59.93522488
_train_cond.csv,1 1 1 0 1 1 0 1 1 1,8,categoryA,f,,,0,4,4,2,2,6,34,11,,,,,,,,,,,,,,,,,,,j,0,0.390377125,,,,,,,,,,,,,,,,,,,,,,,,,,,,,,,888,1,2021_Sep_07_1438,joplin1,2021.2.3,59.93522488
_train_cond.csv,1 1 0 0 0 0 0 0 1 1,4,categoryB,j,,,0,4,4,2,2,7,35,6,,,,,,,,,,,,,,,,,,,f,0,0.764500916,,,,,,,,,,,,,,,,,,,,,,,,,,,,,,,888,1,2021_Sep_07_1438,joplin1,2021.2.3,59.93522488
_train_cond.csv,0 0 0 1 0 0 1 0 0 0,2,categoryB,j,,,0,4,4,2,2,8,36,4,,,,,,,,,,,,,,,,,,,j,1,0.595814417,,,,,,,,,,,,,,,,,,,,,,,,,,,,,,,888,1,2021_Sep_07_1438,joplin1,2021.2.3,59.93522488
_train_cond.csv,1 0 0 0 0 0 0 0 0 1,2,categoryB,j,,,0,4,4,2,2,9,37,0,,,,,,,,,,,,,,,,,,,f,0,0.84179175,,,,,,,,,,,,,,,,,,,,,,,,,,,,,,,888,1,2021_Sep_07_1438,joplin1,2021.2.3,59.93522488
_train_cond.csv,1 0 1 1 1 1 1 1 0 1,8,categoryA,f,,,0,4,4,2,2,10,38,8,,,,,,,,,,,,,,,,,,,j,0,0.406526541,,,,,,,,,,,,,,,,,,,,,,,,,,,,,,,888,1,2021_Sep_07_1438,joplin1,2021.2.3,59.93522488
_train_cond.csv,1 1 0 1 0 0 1 0 1 1,6,categoryA,f,,,0,4,4,2,2,11,39,9,,,,,,,,,,,,,,,,,,,f,1,0.418039375,,,,,,,,,,,,,,,,,,,,,,,,,,,,,,,888,1,2021_Sep_07_1438,joplin1,2021.2.3,59.93522488
_train_cond.csv,0 0 1 1 1 1 1 1 0 0,6,categoryA,f,,,0,4,4,2,2,12,40,13,,,,,,,,,,,,,,,,,,,f,1,1.062611417,,,,,,,,,,,,,,,,,,,,,,,,,,,,,,,888,1,2021_Sep_07_1438,joplin1,2021.2.3,59.93522488
_train_cond.csv,0 0 0 1 1 1 1 0 0 0,4,categoryB,j,,,0,4,4,2,2,13,41,3,,,,,,,,,,,,,,,,,,,j,1,0.529729,,,,,,,,,,,,,,,,,,,,,,,,,,,,,,,888,1,2021_Sep_07_1438,joplin1,2021.2.3,59.93522488
_train_cond.csv,,,,,,,0,4,4,2,,,,,,,,,,,,,,,,,,,,,,,,,,space,3.323519875,,,,,,,,,,,,,,,,,,,,,,,,,,,,,888,1,2021_Sep_07_1438,joplin1,2021.2.3,59.93522488
_train_cond.csv,0 1 0 0 0 0 0 0 1 0,2,categoryB,j,,,0,5,5,0,0,0,0,1,,,,,,,,,,,,,,,,,,,f,0,1.106689125,,,,,,,,,,,,,,,,,,,,,,,,,,,,,,,888,1,2021_Sep_07_1438,joplin1,2021.2.3,59.93522488
_train_cond.csv,1 1 1 0 0 0 0 1 1 1,6,categoryA,f,,,0,5,5,0,0,1,1,10,,,,,,,,,,,,,,,,,,,f,1,0.323692375,,,,,,,,,,,,,,,,,,,,,,,,,,,,,,,888,1,2021_Sep_07_1438,joplin1,2021.2.3,59.93522488
_train_cond.csv,1 0 0 0 0 0 0 0 0 1,2,categoryB,j,,,0,5,5,0,0,2,2,0,,,,,,,,,,,,,,,,,,,j,1,0.51713125,,,,,,,,,,,,,,,,,,,,,,,,,,,,,,,888,1,2021_Sep_07_1438,joplin1,2021.2.3,59.93522488
_train_cond.csv,1 1 1 0 1 1 0 1 1 1,8,categoryA,f,,,0,5,5,0,0,3,3,11,,,,,,,,,,,,,,,,,,,f,1,0.476496834,,,,,,,,,,,,,,,,,,,,,,,,,,,,,,,888,1,2021_Sep_07_1438,joplin1,2021.2.3,59.93522488
_train_cond.csv,0 0 1 0 0 0 0 1 0 0,2,categoryB,j,,,0,5,5,0,0,4,4,5,,,,,,,,,,,,,,,,,,,f,0,0.823362167,,,,,,,,,,,,,,,,,,,,,,,,,,,,,,,888,1,2021_Sep_07_1438,joplin1,2021.2.3,59.93522488
_train_cond.csv,1 1 0 1 0 0 1 0 1 1,6,categoryA,f,,,0,5,5,0,0,5,5,9,,,,,,,,,,,,,,,,,,,j,0,1.050841459,,,,,,,,,,,,,,,,,,,,,,,,,,,,,,,888,1,2021_Sep_07_1438,joplin1,2021.2.3,59.93522488
_train_cond.csv,1 0 1 1 1 1 1 1 0 1,8,categoryA,f,,,0,5,5,0,0,6,6,8,,,,,,,,,,,,,,,,,,,j,0,0.743338,,,,,,,,,,,,,,,,,,,,,,,,,,,,,,,888,1,2021_Sep_07_1438,joplin1,2021.2.3,59.93522488
_train_cond.csv,0 1 1 1 1 1 1 1 1 0,8,categoryA,f,,,0,5,5,0,0,7,7,7,,,,,,,,,,,,,,,,,,,f,1,0.840002958,,,,,,,,,,,,,,,,,,,,,,,,,,,,,,,888,1,2021_Sep_07_1438,joplin1,2021.2.3,59.93522488
_train_cond.csv,0 0 0 1 1 1 1 0 0 0,4,categoryB,j,,,0,5,5,0,0,8,8,3,,,,,,,,,,,,,,,,,,,j,1,0.48411025,,,,,,,,,,,,,,,,,,,,,,,,,,,,,,,888,1,2021_Sep_07_1438,joplin1,2021.2.3,59.93522488
_train_cond.csv,0 0 1 1 1 1 1 1 0 0,6,categoryA,f,,,0,5,5,0,0,9,9,13,,,,,,,,,,,,,,,,,,,f,1,0.94178,,,,,,,,,,,,,,,,,,,,,,,,,,,,,,,888,1,2021_Sep_07_1438,joplin1,2021.2.3,59.93522488
_train_cond.csv,0 0 1 0 1 1 0 1 0 0,4,categoryB,j,,,0,5,5,0,0,10,10,2,,,,,,,,,,,,,,,,,,,j,1,0.682977917,,,,,,,,,,,,,,,,,,,,,,,,,,,,,,,888,1,2021_Sep_07_1438,joplin1,2021.2.3,59.93522488
_train_cond.csv,1 1 0 0 0 0 0 0 1 1,4,categoryB,j,,,0,5,5,0,0,11,11,6,,,,,,,,,,,,,,,,,,,f,0,0.693234208,,,,,,,,,,,,,,,,,,,,,,,,,,,,,,,888,1,2021_Sep_07_1438,joplin1,2021.2.3,59.93522488
_train_cond.csv,0 0 0 1 0 0 1 0 0 0,2,categoryB,j,,,0,5,5,0,0,12,12,4,,,,,,,,,,,,,,,,,,,j,1,0.527842083,,,,,,,,,,,,,,,,,,,,,,,,,,,,,,,888,1,2021_Sep_07_1438,joplin1,2021.2.3,59.93522488
_train_cond.csv,1 1 0 1 1 1 1 0 1 1,8,categoryA,f,,,0,5,5,0,0,13,13,12,,,,,,,,,,,,,,,,,,,j,0,0.895600458,,,,,,,,,,,,,,,,,,,,,,,,,,,,,,,888,1,2021_Sep_07_1438,joplin1,2021.2.3,59.93522488
_train_cond.csv,0 0 0 1 0 0 1 0 0 0,2,categoryB,j,,,0,5,5,0,1,0,14,4,,,,,,,,,,,,,,,,,,,j,1,0.682308667,,,,,,,,,,,,,,,,,,,,,,,,,,,,,,,888,1,2021_Sep_07_1438,joplin1,2021.2.3,59.93522488
_train_cond.csv,0 0 1 1 1 1 1 1 0 0,6,categoryA,f,,,0,5,5,0,1,1,15,13,,,,,,,,,,,,,,,,,,,f,1,1.33335825,,,,,,,,,,,,,,,,,,,,,,,,,,,,,,,888,1,2021_Sep_07_1438,joplin1,2021.2.3,59.93522488
_train_cond.csv,1 1 0 1 0 0 1 0 1 1,6,categoryA,f,,,0,5,5,0,1,2,16,9,,,,,,,,,,,,,,,,,,,j,0,1.101439958,,,,,,,,,,,,,,,,,,,,,,,,,,,,,,,888,1,2021_Sep_07_1438,joplin1,2021.2.3,59.93522488
_train_cond.csv,1 1 1 0 1 1 0 1 1 1,8,categoryA,f,,,0,5,5,0,1,3,17,11,,,,,,,,,,,,,,,,,,,f,1,0.726520042,,,,,,,,,,,,,,,,,,,,,,,,,,,,,,,888,1,2021_Sep_07_1438,joplin1,2021.2.3,59.93522488
_train_cond.csv,0 0 1 0 1 1 0 1 0 0,4,categoryB,j,,,0,5,5,0,1,4,18,2,,,,,,,,,,,,,,,,,,,j,1,0.887081792,,,,,,,,,,,,,,,,,,,,,,,,,,,,,,,888,1,2021_Sep_07_1438,joplin1,2021.2.3,59.93522488
_train_cond.csv,1 1 0 0 0 0 0 0 1 1,4,categoryB,j,,,0,5,5,0,1,5,19,6,,,,,,,,,,,,,,,,,,,f,0,0.809206542,,,,,,,,,,,,,,,,,,,,,,,,,,,,,,,888,1,2021_Sep_07_1438,joplin1,2021.2.3,59.93522488
_train_cond.csv,0 0 0 1 1 1 1 0 0 0,4,categoryB,j,,,0,5,5,0,1,6,20,3,,,,,,,,,,,,,,,,,,,j,1,0.743227458,,,,,,,,,,,,,,,,,,,,,,,,,,,,,,,888,1,2021_Sep_07_1438,joplin1,2021.2.3,59.93522488
_train_cond.csv,0 0 1 0 0 0 0 1 0 0,2,categoryB,j,,,0,5,5,0,1,7,21,5,,,,,,,,,,,,,,,,,,,j,1,0.583546167,,,,,,,,,,,,,,,,,,,,,,,,,,,,,,,888,1,2021_Sep_07_1438,joplin1,2021.2.3,59.93522488
_train_cond.csv,1 1 1 0 0 0 0 1 1 1,6,categoryA,f,,,0,5,5,0,1,8,22,10,,,,,,,,,,,,,,,,,,,j,0,1.028222042,,,,,,,,,,,,,,,,,,,,,,,,,,,,,,,888,1,2021_Sep_07_1438,joplin1,2021.2.3,59.93522488
_train_cond.csv,0 1 1 1 1 1 1 1 1 0,8,categoryA,f,,,0,5,5,0,1,9,23,7,,,,,,,,,,,,,,,,,,,f,1,0.74360025,,,,,,,,,,,,,,,,,,,,,,,,,,,,,,,888,1,2021_Sep_07_1438,joplin1,2021.2.3,59.93522488
_train_cond.csv,0 1 0 0 0 0 0 0 1 0,2,categoryB,j,,,0,5,5,0,1,10,24,1,,,,,,,,,,,,,,,,,,,j,1,0.768856667,,,,,,,,,,,,,,,,,,,,,,,,,,,,,,,888,1,2021_Sep_07_1438,joplin1,2021.2.3,59.93522488
_train_cond.csv,1 0 0 0 0 0 0 0 0 1,2,categoryB,j,,,0,5,5,0,1,11,25,0,,,,,,,,,,,,,,,,,,,f,0,0.638628583,,,,,,,,,,,,,,,,,,,,,,,,,,,,,,,888,1,2021_Sep_07_1438,joplin1,2021.2.3,59.93522488
_train_cond.csv,1 0 1 1 1 1 1 1 0 1,8,categoryA,f,,,0,5,5,0,1,12,26,8,,,,,,,,,,,,,,,,,,,j,0,0.530123125,,,,,,,,,,,,,,,,,,,,,,,,,,,,,,,888,1,2021_Sep_07_1438,joplin1,2021.2.3,59.93522488
_train_cond.csv,1 1 0 1 1 1 1 0 1 1,8,categoryA,f,,,0,5,5,0,1,13,27,12,,,,,,,,,,,,,,,,,,,f,1,0.290289417,,,,,,,,,,,,,,,,,,,,,,,,,,,,,,,888,1,2021_Sep_07_1438,joplin1,2021.2.3,59.93522488
_train_cond.csv,0 1 0 0 0 0 0 0 1 0,2,categoryB,j,,,0,5,5,0,2,0,28,1,,,,,,,,,,,,,,,,,,,f,0,0.331913542,,,,,,,,,,,,,,,,,,,,,,,,,,,,,,,888,1,2021_Sep_07_1438,joplin1,2021.2.3,59.93522488
_train_cond.csv,1 1 0 0 0 0 0 0 1 1,4,categoryB,j,,,0,5,5,0,2,1,29,6,,,,,,,,,,,,,,,,,,,j,1,1.028921,,,,,,,,,,,,,,,,,,,,,,,,,,,,,,,888,1,2021_Sep_07_1438,joplin1,2021.2.3,59.93522488
_train_cond.csv,0 1 1 1 1 1 1 1 1 0,8,categoryA,f,,,0,5,5,0,2,2,30,7,,,,,,,,,,,,,,,,,,,f,1,0.448858583,,,,,,,,,,,,,,,,,,,,,,,,,,,,,,,888,1,2021_Sep_07_1438,joplin1,2021.2.3,59.93522488
_train_cond.csv,1 1 0 1 0 0 1 0 1 1,6,categoryA,f,,,0,5,5,0,2,3,31,9,,,,,,,,,,,,,,,,,,,j,0,0.476474417,,,,,,,,,,,,,,,,,,,,,,,,,,,,,,,888,1,2021_Sep_07_1438,joplin1,2021.2.3,59.93522488
_train_cond.csv,1 1 0 1 1 1 1 0 1 1,8,categoryA,f,,,0,5,5,0,2,4,32,12,,,,,,,,,,,,,,,,,,,f,1,0.560237,,,,,,,,,,,,,,,,,,,,,,,,,,,,,,,888,1,2021_Sep_07_1438,joplin1,2021.2.3,59.93522488
_train_cond.csv,0 0 1 1 1 1 1 1 0 0,6,categoryA,f,,,0,5,5,0,2,5,33,13,,,,,,,,,,,,,,,,,,,j,0,0.486361583,,,,,,,,,,,,,,,,,,,,,,,,,,,,,,,888,1,2021_Sep_07_1438,joplin1,2021.2.3,59.93522488
_train_cond.csv,0 0 0 1 1 1 1 0 0 0,4,categoryB,j,,,0,5,5,0,2,6,34,3,,,,,,,,,,,,,,,,,,,f,0,0.281246916,,,,,,,,,,,,,,,,,,,,,,,,,,,,,,,888,1,2021_Sep_07_1438,joplin1,2021.2.3,59.93522488
_train_cond.csv,0 0 1 0 1 1 0 1 0 0,4,categoryB,j,,,0,5,5,0,2,7,35,2,,,,,,,,,,,,,,,,,,,f,0,0.57081425,,,,,,,,,,,,,,,,,,,,,,,,,,,,,,,888,1,2021_Sep_07_1438,joplin1,2021.2.3,59.93522488
_train_cond.csv,1 0 0 0 0 0 0 0 0 1,2,categoryB,j,,,0,5,5,0,2,8,36,0,,,,,,,,,,,,,,,,,,,f,0,0.410299875,,,,,,,,,,,,,,,,,,,,,,,,,,,,,,,888,1,2021_Sep_07_1438,joplin1,2021.2.3,59.93522488
_train_cond.csv,1 1 1 0 0 0 0 1 1 1,6,categoryA,f,,,0,5,5,0,2,9,37,10,,,,,,,,,,,,,,,,,,,j,0,0.597969334,,,,,,,,,,,,,,,,,,,,,,,,,,,,,,,888,1,2021_Sep_07_1438,joplin1,2021.2.3,59.93522488
_train_cond.csv,1 0 1 1 1 1 1 1 0 1,8,categoryA,f,,,0,5,5,0,2,10,38,8,,,,,,,,,,,,,,,,,,,j,0,0.381855458,,,,,,,,,,,,,,,,,,,,,,,,,,,,,,,888,1,2021_Sep_07_1438,joplin1,2021.2.3,59.93522488
_train_cond.csv,0 0 1 0 0 0 0 1 0 0,2,categoryB,j,,,0,5,5,0,2,11,39,5,,,,,,,,,,,,,,,,,,,f,0,0.284151166,,,,,,,,,,,,,,,,,,,,,,,,,,,,,,,888,1,2021_Sep_07_1438,joplin1,2021.2.3,59.93522488
_train_cond.csv,1 1 1 0 1 1 0 1 1 1,8,categoryA,f,,,0,5,5,0,2,12,40,11,,,,,,,,,,,,,,,,,,,j,0,0.863082709,,,,,,,,,,,,,,,,,,,,,,,,,,,,,,,888,1,2021_Sep_07_1438,joplin1,2021.2.3,59.93522488
_train_cond.csv,0 0 0 1 0 0 1 0 0 0,2,categoryB,j,,,0,5,5,0,2,13,41,4,,,,,,,,,,,,,,,,,,,j,1,0.825667917,,,,,,,,,,,,,,,,,,,,,,,,,,,,,,,888,1,2021_Sep_07_1438,joplin1,2021.2.3,59.93522488
_train_cond.csv,,,,,,,0,5,5,0,,,,,,,,,,,,,,,,,,,,,,,,,,space,12.04683833,,,,,,,,,,,,,,,,,,,,,,,,,,,,,888,1,2021_Sep_07_1438,joplin1,2021.2.3,59.93522488
_train_cond.csv,1 1 0 1 0 0 1 0 1 1,6,categoryA,f,,,0,6,6,4,0,0,0,9,,,,,,,,,,,,,,,,,,,f,1,0.480851292,,,,,,,,,,,,,,,,,,,,,,,,,,,,,,,888,1,2021_Sep_07_1438,joplin1,2021.2.3,59.93522488
_train_cond.csv,0 1 0 0 0 0 0 0 1 0,2,categoryB,j,,,0,6,6,4,0,1,1,1,,,,,,,,,,,,,,,,,,,j,1,0.875746375,,,,,,,,,,,,,,,,,,,,,,,,,,,,,,,888,1,2021_Sep_07_1438,joplin1,2021.2.3,59.93522488
_train_cond.csv,0 0 0 1 1 1 1 0 0 0,4,categoryB,j,,,0,6,6,4,0,2,2,3,,,,,,,,,,,,,,,,,,,j,1,1.25461475,,,,,,,,,,,,,,,,,,,,,,,,,,,,,,,888,1,2021_Sep_07_1438,joplin1,2021.2.3,59.93522488
_train_cond.csv,1 1 0 1 1 1 1 0 1 1,8,categoryA,f,,,0,6,6,4,0,3,3,12,,,,,,,,,,,,,,,,,,,f,1,0.515081584,,,,,,,,,,,,,,,,,,,,,,,,,,,,,,,888,1,2021_Sep_07_1438,joplin1,2021.2.3,59.93522488
_train_cond.csv,0 1 1 1 1 1 1 1 1 0,8,categoryA,f,,,0,6,6,4,0,4,4,7,,,,,,,,,,,,,,,,,,,f,1,0.891207542,,,,,,,,,,,,,,,,,,,,,,,,,,,,,,,888,1,2021_Sep_07_1438,joplin1,2021.2.3,59.93522488
_train_cond.csv,1 1 1 0 1 1 0 1 1 1,8,categoryA,f,,,0,6,6,4,0,5,5,11,,,,,,,,,,,,,,,,,,,j,0,0.95001075,,,,,,,,,,,,,,,,,,,,,,,,,,,,,,,888,1,2021_Sep_07_1438,joplin1,2021.2.3,59.93522488
_train_cond.csv,0 0 1 1 1 1 1 1 0 0,6,categoryA,f,,,0,6,6,4,0,6,6,13,,,,,,,,,,,,,,,,,,,j,0,1.133975458,,,,,,,,,,,,,,,,,,,,,,,,,,,,,,,888,1,2021_Sep_07_1438,joplin1,2021.2.3,59.93522488
_train_cond.csv,0 0 0 1 0 0 1 0 0 0,2,categoryB,j,,,0,6,6,4,0,7,7,4,,,,,,,,,,,,,,,,,,,f,0,0.702852166,,,,,,,,,,,,,,,,,,,,,,,,,,,,,,,888,1,2021_Sep_07_1438,joplin1,2021.2.3,59.93522488
_train_cond.csv,0 0 1 0 0 0 0 1 0 0,2,categoryB,j,,,0,6,6,4,0,8,8,5,,,,,,,,,,,,,,,,,,,j,1,0.680515542,,,,,,,,,,,,,,,,,,,,,,,,,,,,,,,888,1,2021_Sep_07_1438,joplin1,2021.2.3,59.93522488
_train_cond.csv,1 0 1 1 1 1 1 1 0 1,8,categoryA,f,,,0,6,6,4,0,9,9,8,,,,,,,,,,,,,,,,,,,f,1,1.107339666,,,,,,,,,,,,,,,,,,,,,,,,,,,,,,,888,1,2021_Sep_07_1438,joplin1,2021.2.3,59.93522488
_train_cond.csv,1 1 1 0 0 0 0 1 1 1,6,categoryA,f,,,0,6,6,4,0,10,10,10,,,,,,,,,,,,,,,,,,,j,0,0.524128,,,,,,,,,,,,,,,,,,,,,,,,,,,,,,,888,1,2021_Sep_07_1438,joplin1,2021.2.3,59.93522488
_train_cond.csv,0 0 1 0 1 1 0 1 0 0,4,categoryB,j,,,0,6,6,4,0,11,11,2,,,,,,,,,,,,,,,,,,,f,0,0.589197375,,,,,,,,,,,,,,,,,,,,,,,,,,,,,,,888,1,2021_Sep_07_1438,joplin1,2021.2.3,59.93522488
_train_cond.csv,1 1 0 0 0 0 0 0 1 1,4,categoryB,j,,,0,6,6,4,0,12,12,6,,,,,,,,,,,,,,,,,,,f,0,1.55519675,,,,,,,,,,,,,,,,,,,,,,,,,,,,,,,888,1,2021_Sep_07_1438,joplin1,2021.2.3,59.93522488
_train_cond.csv,1 0 0 0 0 0 0 0 0 1,2,categoryB,j,,,0,6,6,4,0,13,13,0,,,,,,,,,,,,,,,,,,,j,1,0.314657709,,,,,,,,,,,,,,,,,,,,,,,,,,,,,,,888,1,2021_Sep_07_1438,joplin1,2021.2.3,59.93522488
_train_cond.csv,0 1 1 1 1 1 1 1 1 0,8,categoryA,f,,,0,6,6,4,1,0,14,7,,,,,,,,,,,,,,,,,,,j,0,0.954681333,,,,,,,,,,,,,,,,,,,,,,,,,,,,,,,888,1,2021_Sep_07_1438,joplin1,2021.2.3,59.93522488
_train_cond.csv,1 1 1 0 1 1 0 1 1 1,8,categoryA,f,,,0,6,6,4,1,1,15,11,,,,,,,,,,,,,,,,,,,f,1,0.993767541,,,,,,,,,,,,,,,,,,,,,,,,,,,,,,,888,1,2021_Sep_07_1438,joplin1,2021.2.3,59.93522488
_train_cond.csv,1 0 1 1 1 1 1 1 0 1,8,categoryA,f,,,0,6,6,4,1,2,16,8,,,,,,,,,,,,,,,,,,,f,1,0.455424875,,,,,,,,,,,,,,,,,,,,,,,,,,,,,,,888,1,2021_Sep_07_1438,joplin1,2021.2.3,59.93522488
_train_cond.csv,1 1 0 1 0 0 1 0 1 1,6,categoryA,f,,,0,6,6,4,1,3,17,9,,,,,,,,,,,,,,,,,,,j,0,1.282358667,,,,,,,,,,,,,,,,,,,,,,,,,,,,,,,888,1,2021_Sep_07_1438,joplin1,2021.2.3,59.93522488
_train_cond.csv,1 1 0 0 0 0 0 0 1 1,4,categoryB,j,,,0,6,6,4,1,4,18,6,,,,,,,,,,,,,,,,,,,f,0,0.773469667,,,,,,,,,,,,,,,,,,,,,,,,,,,,,,,888,1,2021_Sep_07_1438,joplin1,2021.2.3,59.93522488
_train_cond.csv,0 0 1 0 0 0 0 1 0 0,2,categoryB,j,,,0,6,6,4,1,5,19,5,,,,,,,,,,,,,,,,,,,j,1,0.435367208,,,,,,,,,,,,,,,,,,,,,,,,,,,,,,,888,1,2021_Sep_07_1438,joplin1,2021.2.3,59.93522488
_train_cond.csv,1 1 1 0 0 0 0 1 1 1,6,categoryA,f,,,0,6,6,4,1,6,20,10,,,,,,,,,,,,,,,,,,,f,1,0.407325084,,,,,,,,,,,,,,,,,,,,,,,,,,,,,,,888,1,2021_Sep_07_1438,joplin1,2021.2.3,59.93522488
_train_cond.csv,0 0 0 1 0 0 1 0 0 0,2,categoryB,j,,,0,6,6,4,1,7,21,4,,,,,,,,,,,,,,,,,,,f,0,1.237274334,,,,,,,,,,,,,,,,,,,,,,,,,,,,,,,888,1,2021_Sep_07_1438,joplin1,2021.2.3,59.93522488
_train_cond.csv,0 1 0 0 0 0 0 0 1 0,2,categoryB,j,,,0,6,6,4,1,8,22,1,,,,,,,,,,,,,,,,,,,f,0,0.264609875,,,,,,,,,,,,,,,,,,,,,,,,,,,,,,,888,1,2021_Sep_07_1438,joplin1,2021.2.3,59.93522488
_train_cond.csv,0 0 1 0 1 1 0 1 0 0,4,categoryB,j,,,0,6,6,4,1,9,23,2,,,,,,,,,,,,,,,,,,,j,1,1.115921125,,,,,,,,,,,,,,,,,,,,,,,,,,,,,,,888,1,2021_Sep_07_1438,joplin1,2021.2.3,59.93522488
_train_cond.csv,0 0 0 1 1 1 1 0 0 0,4,categoryB,j,,,0,6,6,4,1,10,24,3,,,,,,,,,,,,,,,,,,,f,0,1.453124,,,,,,,,,,,,,,,,,,,,,,,,,,,,,,,888,1,2021_Sep_07_1438,joplin1,2021.2.3,59.93522488
_train_cond.csv,1 0 0 0 0 0 0 0 0 1,2,categoryB,j,,,0,6,6,4,1,11,25,0,,,,,,,,,,,,,,,,,,,f,0,0.344033833,,,,,,,,,,,,,,,,,,,,,,,,,,,,,,,888,1,2021_Sep_07_1438,joplin1,2021.2.3,59.93522488
_train_cond.csv,1 1 0 1 1 1 1 0 1 1,8,categoryA,f,,,0,6,6,4,1,12,26,12,,,,,,,,,,,,,,,,,,,j,0,0.29671625,,,,,,,,,,,,,,,,,,,,,,,,,,,,,,,888,1,2021_Sep_07_1438,joplin1,2021.2.3,59.93522488
_train_cond.csv,0 0 1 1 1 1 1 1 0 0,6,categoryA,f,,,0,6,6,4,1,13,27,13,,,,,,,,,,,,,,,,,,,f,1,0.95459,,,,,,,,,,,,,,,,,,,,,,,,,,,,,,,888,1,2021_Sep_07_1438,joplin1,2021.2.3,59.93522488
_train_cond.csv,1 1 1 0 0 0 0 1 1 1,6,categoryA,f,,,0,6,6,4,2,0,28,10,,,,,,,,,,,,,,,,,,,f,1,0.866322917,,,,,,,,,,,,,,,,,,,,,,,,,,,,,,,888,1,2021_Sep_07_1438,joplin1,2021.2.3,59.93522488
_train_cond.csv,0 0 1 0 0 0 0 1 0 0,2,categoryB,j,,,0,6,6,4,2,1,29,5,,,,,,,,,,,,,,,,,,,j,1,0.948559958,,,,,,,,,,,,,,,,,,,,,,,,,,,,,,,888,1,2021_Sep_07_1438,joplin1,2021.2.3,59.93522488
_train_cond.csv,1 0 0 0 0 0 0 0 0 1,2,categoryB,j,,,0,6,6,4,2,2,30,0,,,,,,,,,,,,,,,,,,,f,0,1.884633167,,,,,,,,,,,,,,,,,,,,,,,,,,,,,,,888,1,2021_Sep_07_1438,joplin1,2021.2.3,59.93522488
_train_cond.csv,1 0 1 1 1 1 1 1 0 1,8,categoryA,f,,,0,6,6,4,2,3,31,8,,,,,,,,,,,,,,,,,,,f,1,1.132499,,,,,,,,,,,,,,,,,,,,,,,,,,,,,,,888,1,2021_Sep_07_1438,joplin1,2021.2.3,59.93522488
_train_cond.csv,0 0 0 1 0 0 1 0 0 0,2,categoryB,j,,,0,6,6,4,2,4,32,4,,,,,,,,,,,,,,,,,,,j,1,0.523821208,,,,,,,,,,,,,,,,,,,,,,,,,,,,,,,888,1,2021_Sep_07_1438,joplin1,2021.2.3,59.93522488
_train_cond.csv,1 1 1 0 1 1 0 1 1 1,8,categoryA,f,,,0,6,6,4,2,5,33,11,,,,,,,,,,,,,,,,,,,f,1,0.733978833,,,,,,,,,,,,,,,,,,,,,,,,,,,,,,,888,1,2021_Sep_07_1438,joplin1,2021.2.3,59.93522488
_train_cond.csv,0 1 0 0 0 0 0 0 1 0,2,categoryB,j,,,0,6,6,4,2,6,34,1,,,,,,,,,,,,,,,,,,,j,1,1.062771959,,,,,,,,,,,,,,,,,,,,,,,,,,,,,,,888,1,2021_Sep_07_1438,joplin1,2021.2.3,59.93522488
_train_cond.csv,1 1 0 1 0 0 1 0 1 1,6,categoryA,f,,,0,6,6,4,2,7,35,9,,,,,,,,,,,,,,,,,,,f,1,0.576792417,,,,,,,,,,,,,,,,,,,,,,,,,,,,,,,888,1,2021_Sep_07_1438,joplin1,2021.2.3,59.93522488
_train_cond.csv,0 1 1 1 1 1 1 1 1 0,8,categoryA,f,,,0,6,6,4,2,8,36,7,,,,,,,,,,,,,,,,,,,j,0,1.247480583,,,,,,,,,,,,,,,,,,,,,,,,,,,,,,,888,1,2021_Sep_07_1438,joplin1,2021.2.3,59.93522488
_train_cond.csv,0 0 0 1 1 1 1 0 0 0,4,categoryB,j,,,0,6,6,4,2,9,37,3,,,,,,,,,,,,,,,,,,,j,1,1.105837875,,,,,,,,,,,,,,,,,,,,,,,,,,,,,,,888,1,2021_Sep_07_1438,joplin1,2021.2.3,59.93522488
_train_cond.csv,1 1 0 0 0 0 0 0 1 1,4,categoryB,j,,,0,6,6,4,2,10,38,6,,,,,,,,,,,,,,,,,,,f,0,0.809936458,,,,,,,,,,,,,,,,,,,,,,,,,,,,,,,888,1,2021_Sep_07_1438,joplin1,2021.2.3,59.93522488
_train_cond.csv,0 0 1 1 1 1 1 1 0 0,6,categoryA,f,,,0,6,6,4,2,11,39,13,,,,,,,,,,,,,,,,,,,j,0,0.952228875,,,,,,,,,,,,,,,,,,,,,,,,,,,,,,,888,1,2021_Sep_07_1438,joplin1,2021.2.3,59.93522488
_train_cond.csv,0 0 1 0 1 1 0 1 0 0,4,categoryB,j,,,0,6,6,4,2,12,40,2,,,,,,,,,,,,,,,,,,,f,0,0.998848334,,,,,,,,,,,,,,,,,,,,,,,,,,,,,,,888,1,2021_Sep_07_1438,joplin1,2021.2.3,59.93522488
_train_cond.csv,1 1 0 1 1 1 1 0 1 1,8,categoryA,f,,,0,6,6,4,2,13,41,12,,,,,,,,,,,,,,,,,,,j,0,1.09280275,,,,,,,,,,,,,,,,,,,,,,,,,,,,,,,888,1,2021_Sep_07_1438,joplin1,2021.2.3,59.93522488
_train_cond.csv,,,,,,,0,6,6,4,,,,,,,,,,,,,,,,,,,,,,,,,,space,15.01518287,,,,,,,,,,,,,,,,,,,,,,,,,,,,,888,1,2021_Sep_07_1438,joplin1,2021.2.3,59.93522488
_train_cond.csv,0 0 1 0 0 0 0 1 0 0,2,categoryB,j,,,0,7,7,3,0,0,0,5,,,,,,,,,,,,,,,,,,,j,1,1.315204625,,,,,,,,,,,,,,,,,,,,,,,,,,,,,,,888,1,2021_Sep_07_1438,joplin1,2021.2.3,59.93522488
_train_cond.csv,1 1 0 0 0 0 0 0 1 1,4,categoryB,j,,,0,7,7,3,0,1,1,6,,,,,,,,,,,,,,,,,,,f,0,0.668133209,,,,,,,,,,,,,,,,,,,,,,,,,,,,,,,888,1,2021_Sep_07_1438,joplin1,2021.2.3,59.93522488
_train_cond.csv,1 0 1 1 1 1 1 1 0 1,8,categoryA,f,,,0,7,7,3,0,2,2,8,,,,,,,,,,,,,,,,,,,j,0,0.78415675,,,,,,,,,,,,,,,,,,,,,,,,,,,,,,,888,1,2021_Sep_07_1438,joplin1,2021.2.3,59.93522488
_train_cond.csv,0 1 1 1 1 1 1 1 1 0,8,categoryA,f,,,0,7,7,3,0,3,3,7,,,,,,,,,,,,,,,,,,,f,1,0.892839875,,,,,,,,,,,,,,,,,,,,,,,,,,,,,,,888,1,2021_Sep_07_1438,joplin1,2021.2.3,59.93522488
_train_cond.csv,0 0 0 1 1 1 1 0 0 0,4,categoryB,j,,,0,7,7,3,0,4,4,3,,,,,,,,,,,,,,,,,,,j,1,0.477664167,,,,,,,,,,,,,,,,,,,,,,,,,,,,,,,888,1,2021_Sep_07_1438,joplin1,2021.2.3,59.93522488
_train_cond.csv,0 0 0 1 0 0 1 0 0 0,2,categoryB,j,,,0,7,7,3,0,5,5,4,,,,,,,,,,,,,,,,,,,j,1,0.312639917,,,,,,,,,,,,,,,,,,,,,,,,,,,,,,,888,1,2021_Sep_07_1438,joplin1,2021.2.3,59.93522488
_train_cond.csv,0 1 0 0 0 0 0 0 1 0,2,categoryB,j,,,0,7,7,3,0,6,6,1,,,,,,,,,,,,,,,,,,,f,0,0.522557875,,,,,,,,,,,,,,,,,,,,,,,,,,,,,,,888,1,2021_Sep_07_1438,joplin1,2021.2.3,59.93522488
_train_cond.csv,1 1 0 1 1 1 1 0 1 1,8,categoryA,f,,,0,7,7,3,0,7,7,12,,,,,,,,,,,,,,,,,,,f,1,0.522828625,,,,,,,,,,,,,,,,,,,,,,,,,,,,,,,888,1,2021_Sep_07_1438,joplin1,2021.2.3,59.93522488
_train_cond.csv,0 0 1 0 1 1 0 1 0 0,4,categoryB,j,,,0,7,7,3,0,8,8,2,,,,,,,,,,,,,,,,,,,f,0,0.611484125,,,,,,,,,,,,,,,,,,,,,,,,,,,,,,,888,1,2021_Sep_07_1438,joplin1,2021.2.3,59.93522488
_train_cond.csv,1 1 1 0 0 0 0 1 1 1,6,categoryA,f,,,0,7,7,3,0,9,9,10,,,,,,,,,,,,,,,,,,,f,1,0.352403083,,,,,,,,,,,,,,,,,,,,,,,,,,,,,,,888,1,2021_Sep_07_1438,joplin1,2021.2.3,59.93522488
_train_cond.csv,0 0 1 1 1 1 1 1 0 0,6,categoryA,f,,,0,7,7,3,0,10,10,13,,,,,,,,,,,,,,,,,,,j,0,0.631416084,,,,,,,,,,,,,,,,,,,,,,,,,,,,,,,888,1,2021_Sep_07_1438,joplin1,2021.2.3,59.93522488
_train_cond.csv,1 1 1 0 1 1 0 1 1 1,8,categoryA,f,,,0,7,7,3,0,11,11,11,,,,,,,,,,,,,,,,,,,f,1,0.972265375,,,,,,,,,,,,,,,,,,,,,,,,,,,,,,,888,1,2021_Sep_07_1438,joplin1,2021.2.3,59.93522488
_train_cond.csv,1 1 0 1 0 0 1 0 1 1,6,categoryA,f,,,0,7,7,3,0,12,12,9,,,,,,,,,,,,,,,,,,,j,0,0.721725625,,,,,,,,,,,,,,,,,,,,,,,,,,,,,,,888,1,2021_Sep_07_1438,joplin1,2021.2.3,59.93522488
_train_cond.csv,1 0 0 0 0 0 0 0 0 1,2,categoryB,j,,,0,7,7,3,0,13,13,0,,,,,,,,,,,,,,,,,,,f,0,1.234972542,,,,,,,,,,,,,,,,,,,,,,,,,,,,,,,888,1,2021_Sep_07_1438,joplin1,2021.2.3,59.93522488
_train_cond.csv,1 0 0 0 0 0 0 0 0 1,2,categoryB,j,,,0,7,7,3,1,0,14,0,,,,,,,,,,,,,,,,,,,j,1,0.687860875,,,,,,,,,,,,,,,,,,,,,,,,,,,,,,,888,1,2021_Sep_07_1438,joplin1,2021.2.3,59.93522488
_train_cond.csv,0 0 1 1 1 1 1 1 0 0,6,categoryA,f,,,0,7,7,3,1,1,15,13,,,,,,,,,,,,,,,,,,,f,1,0.794372333,,,,,,,,,,,,,,,,,,,,,,,,,,,,,,,888,1,2021_Sep_07_1438,joplin1,2021.2.3,59.93522488
_train_cond.csv,0 1 0 0 0 0 0 0 1 0,2,categoryB,j,,,0,7,7,3,1,2,16,1,,,,,,,,,,,,,,,,,,,f,0,1.744892833,,,,,,,,,,,,,,,,,,,,,,,,,,,,,,,888,1,2021_Sep_07_1438,joplin1,2021.2.3,59.93522488
_train_cond.csv,0 1 1 1 1 1 1 1 1 0,8,categoryA,f,,,0,7,7,3,1,3,17,7,,,,,,,,,,,,,,,,,,,f,1,0.256035542,,,,,,,,,,,,,,,,,,,,,,,,,,,,,,,888,1,2021_Sep_07_1438,joplin1,2021.2.3,59.93522488
_train_cond.csv,0 0 0 1 0 0 1 0 0 0,2,categoryB,j,,,0,7,7,3,1,4,18,4,,,,,,,,,,,,,,,,,,,f,0,0.435274791,,,,,,,,,,,,,,,,,,,,,,,,,,,,,,,888,1,2021_Sep_07_1438,joplin1,2021.2.3,59.93522488
_train_cond.csv,1 1 1 0 1 1 0 1 1 1,8,categoryA,f,,,0,7,7,3,1,5,19,11,,,,,,,,,,,,,,,,,,,f,1,0.878530875,,,,,,,,,,,,,,,,,,,,,,,,,,,,,,,888,1,2021_Sep_07_1438,joplin1,2021.2.3,59.93522488
_train_cond.csv,1 1 0 1 0 0 1 0 1 1,6,categoryA,f,,,0,7,7,3,1,6,20,9,,,,,,,,,,,,,,,,,,,f,1,1.17782925,,,,,,,,,,,,,,,,,,,,,,,,,,,,,,,888,1,2021_Sep_07_1438,joplin1,2021.2.3,59.93522488
_train_cond.csv,0 0 1 0 0 0 0 1 0 0,2,categoryB,j,,,0,7,7,3,1,7,21,5,,,,,,,,,,,,,,,,,,,j,1,0.721742542,,,,,,,,,,,,,,,,,,,,,,,,,,,,,,,888,1,2021_Sep_07_1438,joplin1,2021.2.3,59.93522488
_train_cond.csv,1 1 1 0 0 0 0 1 1 1,6,categoryA,f,,,0,7,7,3,1,8,22,10,,,,,,,,,,,,,,,,,,,f,1,0.481488542,,,,,,,,,,,,,,,,,,,,,,,,,,,,,,,888,1,2021_Sep_07_1438,joplin1,2021.2.3,59.93522488
_train_cond.csv,1 1 0 0 0 0 0 0 1 1,4,categoryB,j,,,0,7,7,3,1,9,23,6,,,,,,,,,,,,,,,,,,,f,0,0.84538275,,,,,,,,,,,,,,,,,,,,,,,,,,,,,,,888,1,2021_Sep_07_1438,joplin1,2021.2.3,59.93522488
_train_cond.csv,0 0 1 0 1 1 0 1 0 0,4,categoryB,j,,,0,7,7,3,1,10,24,2,,,,,,,,,,,,,,,,,,,j,1,1.583913167,,,,,,,,,,,,,,,,,,,,,,,,,,,,,,,888,1,2021_Sep_07_1438,joplin1,2021.2.3,59.93522488
_train_cond.csv,1 0 1 1 1 1 1 1 0 1,8,categoryA,f,,,0,7,7,3,1,11,25,8,,,,,,,,,,,,,,,,,,,f,1,1.718621208,,,,,,,,,,,,,,,,,,,,,,,,,,,,,,,888,1,2021_Sep_07_1438,joplin1,2021.2.3,59.93522488
_train_cond.csv,1 1 0 1 1 1 1 0 1 1,8,categoryA,f,,,0,7,7,3,1,12,26,12,,,,,,,,,,,,,,,,,,,j,0,0.919349416,,,,,,,,,,,,,,,,,,,,,,,,,,,,,,,888,1,2021_Sep_07_1438,joplin1,2021.2.3,59.93522488
_train_cond.csv,0 0 0 1 1 1 1 0 0 0,4,categoryB,j,,,0,7,7,3,1,13,27,3,,,,,,,,,,,,,,,,,,,f,0,0.543406083,,,,,,,,,,,,,,,,,,,,,,,,,,,,,,,888,1,2021_Sep_07_1438,joplin1,2021.2.3,59.93522488
_train_cond.csv,1 1 1 0 1 1 0 1 1 1,8,categoryA,f,,,0,7,7,3,2,0,28,11,,,,,,,,,,,,,,,,,,,f,1,0.375530708,,,,,,,,,,,,,,,,,,,,,,,,,,,,,,,888,1,2021_Sep_07_1438,joplin1,2021.2.3,59.93522488
_train_cond.csv,0 1 1 1 1 1 1 1 1 0,8,categoryA,f,,,0,7,7,3,2,1,29,7,,,,,,,,,,,,,,,,,,,j,0,0.524796917,,,,,,,,,,,,,,,,,,,,,,,,,,,,,,,888,1,2021_Sep_07_1438,joplin1,2021.2.3,59.93522488
_train_cond.csv,1 0 1 1 1 1 1 1 0 1,8,categoryA,f,,,0,7,7,3,2,2,30,8,,,,,,,,,,,,,,,,,,,f,1,0.557813916,,,,,,,,,,,,,,,,,,,,,,,,,,,,,,,888,1,2021_Sep_07_1438,joplin1,2021.2.3,59.93522488
_train_cond.csv,1 1 0 1 1 1 1 0 1 1,8,categoryA,f,,,0,7,7,3,2,3,31,12,,,,,,,,,,,,,,,,,,,j,0,0.763196583,,,,,,,,,,,,,,,,,,,,,,,,,,,,,,,888,1,2021_Sep_07_1438,joplin1,2021.2.3,59.93522488
_train_cond.csv,0 0 1 0 0 0 0 1 0 0,2,categoryB,j,,,0,7,7,3,2,4,32,5,,,,,,,,,,,,,,,,,,,f,0,1.043130459,,,,,,,,,,,,,,,,,,,,,,,,,,,,,,,888,1,2021_Sep_07_1438,joplin1,2021.2.3,59.93522488
_train_cond.csv,0 0 0 1 1 1 1 0 0 0,4,categoryB,j,,,0,7,7,3,2,5,33,3,,,,,,,,,,,,,,,,,,,j,1,0.911811917,,,,,,,,,,,,,,,,,,,,,,,,,,,,,,,888,1,2021_Sep_07_1438,joplin1,2021.2.3,59.93522488
_train_cond.csv,0 0 1 0 1 1 0 1 0 0,4,categoryB,j,,,0,7,7,3,2,6,34,2,,,,,,,,,,,,,,,,,,,f,0,0.736890208,,,,,,,,,,,,,,,,,,,,,,,,,,,,,,,888,1,2021_Sep_07_1438,joplin1,2021.2.3,59.93522488
_train_cond.csv,1 1 1 0 0 0 0 1 1 1,6,categoryA,f,,,0,7,7,3,2,7,35,10,,,,,,,,,,,,,,,,,,,f,1,0.897321667,,,,,,,,,,,,,,,,,,,,,,,,,,,,,,,888,1,2021_Sep_07_1438,joplin1,2021.2.3,59.93522488
_train_cond.csv,0 1 0 0 0 0 0 0 1 0,2,categoryB,j,,,0,7,7,3,2,8,36,1,,,,,,,,,,,,,,,,,,,j,1,0.266327875,,,,,,,,,,,,,,,,,,,,,,,,,,,,,,,888,1,2021_Sep_07_1438,joplin1,2021.2.3,59.93522488
_train_cond.csv,1 1 0 0 0 0 0 0 1 1,4,categoryB,j,,,0,7,7,3,2,9,37,6,,,,,,,,,,,,,,,,,,,f,0,1.069605292,,,,,,,,,,,,,,,,,,,,,,,,,,,,,,,888,1,2021_Sep_07_1438,joplin1,2021.2.3,59.93522488
_train_cond.csv,0 0 0 1 0 0 1 0 0 0,2,categoryB,j,,,0,7,7,3,2,10,38,4,,,,,,,,,,,,,,,,,,,j,1,0.968931833,,,,,,,,,,,,,,,,,,,,,,,,,,,,,,,888,1,2021_Sep_07_1438,joplin1,2021.2.3,59.93522488
_train_cond.csv,1 1 0 1 0 0 1 0 1 1,6,categoryA,f,,,0,7,7,3,2,11,39,9,,,,,,,,,,,,,,,,,,,j,0,0.75935925,,,,,,,,,,,,,,,,,,,,,,,,,,,,,,,888,1,2021_Sep_07_1438,joplin1,2021.2.3,59.93522488
_train_cond.csv,0 0 1 1 1 1 1 1 0 0,6,categoryA,f,,,0,7,7,3,2,12,40,13,,,,,,,,,,,,,,,,,,,f,1,0.990396625,,,,,,,,,,,,,,,,,,,,,,,,,,,,,,,888,1,2021_Sep_07_1438,joplin1,2021.2.3,59.93522488
_train_cond.csv,1 0 0 0 0 0 0 0 0 1,2,categoryB,j,,,0,7,7,3,2,13,41,0,,,,,,,,,,,,,,,,,,,f,0,0.765160125,,,,,,,,,,,,,,,,,,,,,,,,,,,,,,,888,1,2021_Sep_07_1438,joplin1,2021.2.3,59.93522488
_train_cond.csv,,,,,,,0,7,7,3,,,,,,,,,,,,,,,,,,,,,,,,,,space,5.195139459,,,,,,,,,,,,,,,,,,,,,,,,,,,,,888,1,2021_Sep_07_1438,joplin1,2021.2.3,59.93522488
,,,,,,,,,,,,,,,,,,,,,,,,,,,,,,,,,,,,,,q,48.93202067,,,,,,,,,,,,,,,,,,,,,,,,,,,888,1,2021_Sep_07_1438,joplin1,2021.2.3,59.93522488
,,,,,,,,,,,,,,,,,,,,,,,,,,,,,,,,,,,,,,,,f,17.32531221,,,,,,,,,,,,,,,,,,,,,,,,,888,1,2021_Sep_07_1438,joplin1,2021.2.3,59.93522488
,,,,,,,,,,,,,,,,,,,,,,,,,,,,,,,,,,,,,,,,,,space,23.44812675,,,,,,,,,,,,,,,,,,,,,,,888,1,2021_Sep_07_1438,joplin1,2021.2.3,59.93522488
,,,,,,,,,,,,,,,,,,,,,,,,,,,,,,,,,,,,,,,,,,,,space,6.516445,,,,,,,,,,,,,,,,,,,,,888,1,2021_Sep_07_1438,joplin1,2021.2.3,59.93522488
,0 0 1 0 1 1 0 1 0 0,4,categoryB,j,genfile1.csv,1,,,,,,,,,0,0,0,0,0,0,0,4,,,,,,,,,,,,,,,,,,,,,,,,f,0,1.481534208,,,,,,,,,,,,,,,,,,888,1,2021_Sep_07_1438,joplin1,2021.2.3,59.93522488
,0 0 1 0 0 1 0 0 1 0,3,categoryB,j,genfile1.csv,0,,,,,,,,,0,0,0,0,0,1,1,26,,,,,,,,,,,,,,,,,,,,,,,,f,0,1.161777458,,,,,,,,,,,,,,,,,,888,1,2021_Sep_07_1438,joplin1,2021.2.3,59.93522488
,1 1 0 0 0 1 0 1 1 1,6,categoryA,f,genfile1.csv,0,,,,,,,,,0,0,0,0,0,2,2,36,,,,,,,,,,,,,,,,,,,,,,,,f,1,1.175196208,,,,,,,,,,,,,,,,,,888,1,2021_Sep_07_1438,joplin1,2021.2.3,59.93522488
,1 1 0 1 1 1 1 1 1 1,9,categoryA,f,genfile1.csv,0,,,,,,,,,0,0,0,0,0,3,3,55,,,,,,,,,,,,,,,,,,,,,,,,j,0,0.629797167,,,,,,,,,,,,,,,,,,888,1,2021_Sep_07_1438,joplin1,2021.2.3,59.93522488
,0 0 0 0 0 0 0 0 0 1,1,categoryB,j,genfile1.csv,0,,,,,,,,,0,0,0,0,0,4,4,20,,,,,,,,,,,,,,,,,,,,,,,,j,1,0.624005,,,,,,,,,,,,,,,,,,888,1,2021_Sep_07_1438,joplin1,2021.2.3,59.93522488
,0 0 0 1 0 1 1 0 0 1,4,categoryB,j,genfile1.csv,0,,,,,,,,,0,0,0,0,0,5,5,31,,,,,,,,,,,,,,,,,,,,,,,,f,0,1.349346708,,,,,,,,,,,,,,,,,,888,1,2021_Sep_07_1438,joplin1,2021.2.3,59.93522488
,1 1 1 0 1 1 0 1 1 1,8,categoryA,f,genfile1.csv,1,,,,,,,,,0,0,0,0,0,6,6,13,,,,,,,,,,,,,,,,,,,,,,,,f,1,1.19654775,,,,,,,,,,,,,,,,,,888,1,2021_Sep_07_1438,joplin1,2021.2.3,59.93522488
,1 1 1 1 1 1 1 1 1 1,10,categoryA,f,genfile1.csv,0,,,,,,,,,0,0,0,0,0,7,7,1,,,,,,,,,,,,,,,,,,,,,,,,j,0,1.264213791,,,,,,,,,,,,,,,,,,888,1,2021_Sep_07_1438,joplin1,2021.2.3,59.93522488
,1 0 1 1 1 1 1 1 0 1,8,categoryA,f,genfile1.csv,1,,,,,,,,,0,0,0,0,0,8,8,10,,,,,,,,,,,,,,,,,,,,,,,,j,0,0.757046458,,,,,,,,,,,,,,,,,,888,1,2021_Sep_07_1438,joplin1,2021.2.3,59.93522488
,1 1 1 0 0 0 0 1 1 1,6,categoryA,f,genfile1.csv,1,,,,,,,,,0,0,0,0,0,9,9,12,,,,,,,,,,,,,,,,,,,,,,,,f,1,1.340794708,,,,,,,,,,,,,,,,,,888,1,2021_Sep_07_1438,joplin1,2021.2.3,59.93522488
,0 1 1 1 1 1 1 1 1 0,8,categoryA,f,genfile1.csv,1,,,,,,,,,0,0,0,0,0,10,10,9,,,,,,,,,,,,,,,,,,,,,,,,f,1,1.523281167,,,,,,,,,,,,,,,,,,888,1,2021_Sep_07_1438,joplin1,2021.2.3,59.93522488
,0 0 0 0 0 0 0 1 0 0,1,categoryB,j,genfile1.csv,0,,,,,,,,,0,0,0,0,0,11,11,18,,,,,,,,,,,,,,,,,,,,,,,,j,1,1.385826958,,,,,,,,,,,,,,,,,,888,1,2021_Sep_07_1438,joplin1,2021.2.3,59.93522488
,0 0 0 1 0 0 0 1 0 0,2,categoryB,j,genfile1.csv,0,,,,,,,,,0,0,0,0,0,12,12,21,,,,,,,,,,,,,,,,,,,,,,,,f,0,0.96404875,,,,,,,,,,,,,,,,,,888,1,2021_Sep_07_1438,joplin1,2021.2.3,59.93522488
,1 1 1 1 0 1 1 1 1 1,9,categoryA,f,genfile1.csv,0,,,,,,,,,0,0,0,0,0,13,13,51,,,,,,,,,,,,,,,,,,,,,,,,j,0,1.464756125,,,,,,,,,,,,,,,,,,888,1,2021_Sep_07_1438,joplin1,2021.2.3,59.93522488
,1 1 1 1 0 1 0 0 0 1,6,categoryA,f,genfile1.csv,0,,,,,,,,,0,0,0,0,0,14,14,38,,,,,,,,,,,,,,,,,,,,,,,,f,1,1.122554917,,,,,,,,,,,,,,,,,,888,1,2021_Sep_07_1438,joplin1,2021.2.3,59.93522488
,0 0 1 1 1 1 1 1 0 0,6,categoryA,f,genfile1.csv,1,,,,,,,,,0,0,0,0,0,15,15,15,,,,,,,,,,,,,,,,,,,,,,,,j,0,1.820227208,,,,,,,,,,,,,,,,,,888,1,2021_Sep_07_1438,joplin1,2021.2.3,59.93522488
,1 1 1 1 0 1 0 1 1 1,8,categoryA,f,genfile1.csv,0,,,,,,,,,0,0,0,0,0,16,16,47,,,,,,,,,,,,,,,,,,,,,,,,f,1,0.389208542,,,,,,,,,,,,,,,,,,888,1,2021_Sep_07_1438,joplin1,2021.2.3,59.93522488
,0 0 0 1 1 1 1 0 0 0,4,categoryB,j,genfile1.csv,1,,,,,,,,,0,0,0,0,0,17,17,5,,,,,,,,,,,,,,,,,,,,,,,,f,0,0.684320208,,,,,,,,,,,,,,,,,,888,1,2021_Sep_07_1438,joplin1,2021.2.3,59.93522488
,1 0 0 0 0 0 0 0 0 1,2,categoryB,j,genfile1.csv,1,,,,,,,,,0,0,0,0,0,18,18,2,,,,,,,,,,,,,,,,,,,,,,,,f,0,1.248497667,,,,,,,,,,,,,,,,,,888,1,2021_Sep_07_1438,joplin1,2021.2.3,59.93522488
,1 0 1 1 1 1 1 1 1 0,8,categoryA,f,genfile1.csv,0,,,,,,,,,0,0,0,0,0,19,19,49,,,,,,,,,,,,,,,,,,,,,,,,j,0,0.543962375,,,,,,,,,,,,,,,,,,888,1,2021_Sep_07_1438,joplin1,2021.2.3,59.93522488
,0 1 0 0 0 0 0 0 1 0,2,categoryB,j,genfile1.csv,1,,,,,,,,,0,0,0,0,0,20,20,3,,,,,,,,,,,,,,,,,,,,,,,,j,1,1.096291917,,,,,,,,,,,,,,,,,,888,1,2021_Sep_07_1438,joplin1,2021.2.3,59.93522488
,1 1 0 1 0 0 1 0 1 1,6,categoryA,f,genfile1.csv,1,,,,,,,,,0,0,0,0,0,21,21,11,,,,,,,,,,,,,,,,,,,,,,,,j,0,1.298967,,,,,,,,,,,,,,,,,,888,1,2021_Sep_07_1438,joplin1,2021.2.3,59.93522488
,1 1 1 1 1 1 1 0 1 1,9,categoryA,f,genfile1.csv,0,,,,,,,,,0,0,0,0,0,22,22,54,,,,,,,,,,,,,,,,,,,,,,,,f,1,0.524168625,,,,,,,,,,,,,,,,,,888,1,2021_Sep_07_1438,joplin1,2021.2.3,59.93522488
,1 0 0 0 0 0 1 0 0 0,2,categoryB,j,genfile1.csv,0,,,,,,,,,0,0,0,0,0,23,23,23,,,,,,,,,,,,,,,,,,,,,,,,j,1,0.971724875,,,,,,,,,,,,,,,,,,888,1,2021_Sep_07_1438,joplin1,2021.2.3,59.93522488
,0 1 1 1 1 0 0 0 1 1,6,categoryA,f,genfile1.csv,0,,,,,,,,,0,0,0,0,0,24,24,37,,,,,,,,,,,,,,,,,,,,,,,,f,1,0.978154917,,,,,,,,,,,,,,,,,,888,1,2021_Sep_07_1438,joplin1,2021.2.3,59.93522488
,1 0 0 0 0 0 0 0 0 0,1,categoryB,j,genfile1.csv,0,,,,,,,,,0,0,0,0,0,25,25,19,,,,,,,,,,,,,,,,,,,,,,,,f,0,1.470749583,,,,,,,,,,,,,,,,,,888,1,2021_Sep_07_1438,joplin1,2021.2.3,59.93522488
,1 1 0 1 1 1 1 0 1 1,8,categoryA,f,genfile1.csv,1,,,,,,,,,0,0,0,0,0,26,26,14,,,,,,,,,,,,,,,,,,,,,,,,j,0,1.490458167,,,,,,,,,,,,,,,,,,888,1,2021_Sep_07_1438,joplin1,2021.2.3,59.93522488
,1 1 0 1 0 1 0 0 0 0,4,categoryB,j,genfile1.csv,0,,,,,,,,,0,0,0,0,0,27,27,33,,,,,,,,,,,,,,,,,,,,,,,,f,0,1.714283167,,,,,,,,,,,,,,,,,,888,1,2021_Sep_07_1438,joplin1,2021.2.3,59.93522488
,0 0 1 1 0 0 0 0 0 0,2,categoryB,j,genfile1.csv,0,,,,,,,,,0,0,0,0,0,28,28,24,,,,,,,,,,,,,,,,,,,,,,,,f,0,1.730469917,,,,,,,,,,,,,,,,,,888,1,2021_Sep_07_1438,joplin1,2021.2.3,59.93522488
,0 0 1 1 0 1 0 1 1 1,6,categoryA,f,genfile1.csv,0,,,,,,,,,0,0,0,0,0,29,29,40,,,,,,,,,,,,,,,,,,,,,,,,j,0,1.361570833,,,,,,,,,,,,,,,,,,888,1,2021_Sep_07_1438,joplin1,2021.2.3,59.93522488
,0 1 1 0 0 0 0 1 0 0,3,categoryB,j,genfile1.csv,0,,,,,,,,,0,0,0,0,0,30,30,28,,,,,,,,,,,,,,,,,,,,,,,,f,0,1.429147375,,,,,,,,,,,,,,,,,,888,1,2021_Sep_07_1438,joplin1,2021.2.3,59.93522488
,0 0 0 1 1 1 0 1 0 0,4,categoryB,j,genfile1.csv,0,,,,,,,,,0,0,0,0,0,31,31,34,,,,,,,,,,,,,,,,,,,,,,,,j,1,1.50391,,,,,,,,,,,,,,,,,,888,1,2021_Sep_07_1438,joplin1,2021.2.3,59.93522488
,1 1 1 1 1 1 1 1 1 0,9,categoryA,f,genfile1.csv,0,,,,,,,,,0,0,0,0,0,32,32,52,,,,,,,,,,,,,,,,,,,,,,,,f,1,1.454649791,,,,,,,,,,,,,,,,,,888,1,2021_Sep_07_1438,joplin1,2021.2.3,59.93522488
,0 0 1 0 0 0 0 1 0 0,2,categoryB,j,genfile1.csv,1,,,,,,,,,0,0,0,0,0,33,33,7,,,,,,,,,,,,,,,,,,,,,,,,j,1,1.474015042,,,,,,,,,,,,,,,,,,888,1,2021_Sep_07_1438,joplin1,2021.2.3,59.93522488
,1 0 0 1 0 1 1 0 1 1,6,categoryA,f,genfile1.csv,0,,,,,,,,,0,0,0,0,0,34,34,39,,,,,,,,,,,,,,,,,,,,,,,,f,1,1.344732459,,,,,,,,,,,,,,,,,,888,1,2021_Sep_07_1438,joplin1,2021.2.3,59.93522488
,0 0 0 1 0 1 0 0 0 0,2,categoryB,j,genfile1.csv,0,,,,,,,,,0,0,0,0,0,35,35,25,,,,,,,,,,,,,,,,,,,,,,,,j,1,1.165808041,,,,,,,,,,,,,,,,,,888,1,2021_Sep_07_1438,joplin1,2021.2.3,59.93522488
,0 0 0 0 1 0 0 0 0 0,1,categoryB,j,genfile1.csv,0,,,,,,,,,0,0,0,0,0,36,36,17,,,,,,,,,,,,,,,,,,,,,,,,f,0,0.826979708,,,,,,,,,,,,,,,,,,888,1,2021_Sep_07_1438,joplin1,2021.2.3,59.93522488
,1 1 1 1 1 1 1 1 0 0,8,categoryA,f,genfile1.csv,0,,,,,,,,,0,0,0,0,0,37,37,48,,,,,,,,,,,,,,,,,,,,,,,,f,1,1.247043583,,,,,,,,,,,,,,,,,,888,1,2021_Sep_07_1438,joplin1,2021.2.3,59.93522488
,1 0 1 1 0 1 1 0 1 1,7,categoryA,f,genfile1.csv,0,,,,,,,,,0,0,0,0,0,38,38,41,,,,,,,,,,,,,,,,,,,,,,,,j,0,0.79396975,,,,,,,,,,,,,,,,,,888,1,2021_Sep_07_1438,joplin1,2021.2.3,59.93522488
,0 1 0 0 0 0 0 0 0 0,1,categoryB,j,genfile1.csv,0,,,,,,,,,0,0,0,0,0,39,39,16,,,,,,,,,,,,,,,,,,,,,,,,j,1,1.142232375,,,,,,,,,,,,,,,,,,888,1,2021_Sep_07_1438,joplin1,2021.2.3,59.93522488
,1 1 0 0 0 0 0 0 1 1,4,categoryB,j,genfile1.csv,1,,,,,,,,,0,0,0,0,0,40,40,8,,,,,,,,,,,,,,,,,,,,,,,,f,0,1.41505475,,,,,,,,,,,,,,,,,,888,1,2021_Sep_07_1438,joplin1,2021.2.3,59.93522488
,1 0 1 1 1 1 0 1 1 0,7,categoryA,f,genfile1.csv,0,,,,,,,,,0,0,0,0,0,41,41,42,,,,,,,,,,,,,,,,,,,,,,,,j,0,1.914453125,,,,,,,,,,,,,,,,,,888,1,2021_Sep_07_1438,joplin1,2021.2.3,59.93522488
,1 1 1 1 0 1 1 1 1 0,8,categoryA,f,genfile1.csv,0,,,,,,,,,0,0,0,0,0,42,42,50,,,,,,,,,,,,,,,,,,,,,,,,j,0,1.526885209,,,,,,,,,,,,,,,,,,888,1,2021_Sep_07_1438,joplin1,2021.2.3,59.93522488
,1 1 1 1 0 1 0 0 1 1,7,categoryA,f,genfile1.csv,0,,,,,,,,,0,0,0,0,0,43,43,44,,,,,,,,,,,,,,,,,,,,,,,,f,1,1.582106333,,,,,,,,,,,,,,,,,,888,1,2021_Sep_07_1438,joplin1,2021.2.3,59.93522488
,0 0 1 1 1 1 1 1 1 1,8,categoryA,f,genfile1.csv,0,,,,,,,,,0,0,0,0,0,44,44,46,,,,,,,,,,,,,,,,,,,,,,,,f,1,2.027018583,,,,,,,,,,,,,,,,,,888,1,2021_Sep_07_1438,joplin1,2021.2.3,59.93522488
,1 0 0 1 0 1 0 0 0 0,3,categoryB,j,genfile1.csv,0,,,,,,,,,0,0,0,0,0,45,45,27,,,,,,,,,,,,,,,,,,,,,,,,f,0,1.813914917,,,,,,,,,,,,,,,,,,888,1,2021_Sep_07_1438,joplin1,2021.2.3,59.93522488
,1 0 0 1 1 1 1 1 1 0,7,categoryA,f,genfile1.csv,0,,,,,,,,,0,0,0,0,0,46,46,45,,,,,,,,,,,,,,,,,,,,,,,,j,0,0.814656,,,,,,,,,,,,,,,,,,888,1,2021_Sep_07_1438,joplin1,2021.2.3,59.93522488
,1 0 1 1 1 0 0 0 0 0,4,categoryB,j,genfile1.csv,0,,,,,,,,,0,0,0,0,0,47,47,32,,,,,,,,,,,,,,,,,,,,,,,,f,0,1.057630833,,,,,,,,,,,,,,,,,,888,1,2021_Sep_07_1438,joplin1,2021.2.3,59.93522488
,1 1 1 0 1 0 1 1 1 0,7,categoryA,f,genfile1.csv,0,,,,,,,,,0,0,0,0,0,48,48,43,,,,,,,,,,,,,,,,,,,,,,,,j,0,1.025411875,,,,,,,,,,,,,,,,,,888,1,2021_Sep_07_1438,joplin1,2021.2.3,59.93522488
,0 1 1 1 1 1 1 1 1 1,9,categoryA,f,genfile1.csv,0,,,,,,,,,0,0,0,0,0,49,49,53,,,,,,,,,,,,,,,,,,,,,,,,j,0,1.093447,,,,,,,,,,,,,,,,,,888,1,2021_Sep_07_1438,joplin1,2021.2.3,59.93522488
,0 0 0 1 0 0 1 0 0 0,2,categoryB,j,genfile1.csv,1,,,,,,,,,0,0,0,0,0,50,50,6,,,,,,,,,,,,,,,,,,,,,,,,f,0,1.368089625,,,,,,,,,,,,,,,,,,888,1,2021_Sep_07_1438,joplin1,2021.2.3,59.93522488
,0 1 1 1 0 0 0 0 0 0,3,categoryB,j,genfile1.csv,0,,,,,,,,,0,0,0,0,0,51,51,30,,,,,,,,,,,,,,,,,,,,,,,,j,1,0.493313667,,,,,,,,,,,,,,,,,,888,1,2021_Sep_07_1438,joplin1,2021.2.3,59.93522488
,0 0 0 0 0 0 1 1 0 0,2,categoryB,j,genfile1.csv,0,,,,,,,,,0,0,0,0,0,52,52,22,,,,,,,,,,,,,,,,,,,,,,,,f,0,0.573441417,,,,,,,,,,,,,,,,,,888,1,2021_Sep_07_1438,joplin1,2021.2.3,59.93522488
,0 1 0 0 1 0 0 0 0 1,3,categoryB,j,genfile1.csv,0,,,,,,,,,0,0,0,0,0,53,53,29,,,,,,,,,,,,,,,,,,,,,,,,f,0,0.514823666,,,,,,,,,,,,,,,,,,888,1,2021_Sep_07_1438,joplin1,2021.2.3,59.93522488
,0 0 0 0 0 0 0 0 0 0,0,categoryB,j,genfile1.csv,0,,,,,,,,,0,0,0,0,0,54,54,0,,,,,,,,,,,,,,,,,,,,,,,,j,1,0.178715667,,,,,,,,,,,,,,,,,,888,1,2021_Sep_07_1438,joplin1,2021.2.3,59.93522488
,0 0 1 0 0 0 1 1 1 0,4,categoryB,j,genfile1.csv,0,,,,,,,,,0,0,0,0,0,55,55,35,,,,,,,,,,,,,,,,,,,,,,,,j,1,0.568607167,,,,,,,,,,,,,,,,,,888,1,2021_Sep_07_1438,joplin1,2021.2.3,59.93522488
,,,,,genfile1.csv,,,,,,,,,,0,0,0,0,,,,,,,,,,,,,,,,,,space,29.78294042,,,,,,,,,,,,,,,,,,,,,,,,,,,,,888,1,2021_Sep_07_1438,joplin1,2021.2.3,59.93522488
,1 1 0 0 0 0 0 0 1 1,4,categoryB,j,genfile2.csv,1,,,,,,,,,0,1,1,1,0,0,0,8,,,,,,,,,,,,,,,,,,,,,,,,f,0,0.837163292,,,,,,,,,,,,,,,,,,888,1,2021_Sep_07_1438,joplin1,2021.2.3,59.93522488
,0 0 0 0 0 0 1 0 0 0,1,categoryB,j,genfile2.csv,0,,,,,,,,,0,1,1,1,0,1,1,19,,,,,,,,,,,,,,,,,,,,,,,,j,1,1.181860667,,,,,,,,,,,,,,,,,,888,1,2021_Sep_07_1438,joplin1,2021.2.3,59.93522488
,1 0 1 1 1 0 1 0 1 0,6,categoryA,f,genfile2.csv,0,,,,,,,,,0,1,1,1,0,2,2,36,,,,,,,,,,,,,,,,,,,,,,,,f,1,1.490035375,,,,,,,,,,,,,,,,,,888,1,2021_Sep_07_1438,joplin1,2021.2.3,59.93522488
,0 1 1 0 1 0 1 1 1 1,7,categoryA,f,genfile2.csv,0,,,,,,,,,0,1,1,1,0,3,3,41,,,,,,,,,,,,,,,,,,,,,,,,j,0,1.386542083,,,,,,,,,,,,,,,,,,888,1,2021_Sep_07_1438,joplin1,2021.2.3,59.93522488
,0 0 1 1 1 0 1 1 1 1,7,categoryA,f,genfile2.csv,0,,,,,,,,,0,1,1,1,0,4,4,44,,,,,,,,,,,,,,,,,,,,,,,,f,1,2.038664375,,,,,,,,,,,,,,,,,,888,1,2021_Sep_07_1438,joplin1,2021.2.3,59.93522488
,0 1 0 1 1 1 1 0 1 1,7,categoryA,f,genfile2.csv,0,,,,,,,,,0,1,1,1,0,5,5,43,,,,,,,,,,,,,,,,,,,,,,,,f,1,1.50447175,,,,,,,,,,,,,,,,,,888,1,2021_Sep_07_1438,joplin1,2021.2.3,59.93522488
,1 1 1 1 0 1 1 1 0 0,7,categoryA,f,genfile2.csv,0,,,,,,,,,0,1,1,1,0,6,6,45,,,,,,,,,,,,,,,,,,,,,,,,j,0,0.878956083,,,,,,,,,,,,,,,,,,888,1,2021_Sep_07_1438,joplin1,2021.2.3,59.93522488
,0 1 0 1 1 0 0 1 0 0,4,categoryB,j,genfile2.csv,0,,,,,,,,,0,1,1,1,0,7,7,31,,,,,,,,,,,,,,,,,,,,,,,,f,0,1.039307875,,,,,,,,,,,,,,,,,,888,1,2021_Sep_07_1438,joplin1,2021.2.3,59.93522488
,0 1 1 0 0 0 0 0 0 0,2,categoryB,j,genfile2.csv,0,,,,,,,,,0,1,1,1,0,8,8,21,,,,,,,,,,,,,,,,,,,,,,,,f,0,1.681907583,,,,,,,,,,,,,,,,,,888,1,2021_Sep_07_1438,joplin1,2021.2.3,59.93522488
,0 0 0 1 0 0 0 0 0 0,1,categoryB,j,genfile2.csv,0,,,,,,,,,0,1,1,1,0,9,9,18,,,,,,,,,,,,,,,,,,,,,,,,j,1,1.675498875,,,,,,,,,,,,,,,,,,888,1,2021_Sep_07_1438,joplin1,2021.2.3,59.93522488
,0 1 0 1 0 0 0 1 0 1,4,categoryB,j,genfile2.csv,0,,,,,,,,,0,1,1,1,0,10,10,34,,,,,,,,,,,,,,,,,,,,,,,,j,1,1.429145208,,,,,,,,,,,,,,,,,,888,1,2021_Sep_07_1438,joplin1,2021.2.3,59.93522488
,0 1 0 1 0 0 0 0 0 0,2,categoryB,j,genfile2.csv,0,,,,,,,,,0,1,1,1,0,11,11,25,,,,,,,,,,,,,,,,,,,,,,,,f,0,1.160697333,,,,,,,,,,,,,,,,,,888,1,2021_Sep_07_1438,joplin1,2021.2.3,59.93522488
,0 0 0 0 0 1 0 0 0 0,1,categoryB,j,genfile2.csv,0,,,,,,,,,0,1,1,1,0,12,12,17,,,,,,,,,,,,,,,,,,,,,,,,f,0,1.486257333,,,,,,,,,,,,,,,,,,888,1,2021_Sep_07_1438,joplin1,2021.2.3,59.93522488
,1 1 1 1 1 0 1 1 1 1,9,categoryA,f,genfile2.csv,0,,,,,,,,,0,1,1,1,0,13,13,54,,,,,,,,,,,,,,,,,,,,,,,,f,1,1.823330208,,,,,,,,,,,,,,,,,,888,1,2021_Sep_07_1438,joplin1,2021.2.3,59.93522488
,0 0 1 0 0 0 0 0 0 0,1,categoryB,j,genfile2.csv,0,,,,,,,,,0,1,1,1,0,14,14,20,,,,,,,,,,,,,,,,,,,,,,,,j,1,0.986673333,,,,,,,,,,,,,,,,,,888,1,2021_Sep_07_1438,joplin1,2021.2.3,59.93522488
,0 0 1 0 0 0 0 0 1 1,3,categoryB,j,genfile2.csv,0,,,,,,,,,0,1,1,1,0,15,15,29,,,,,,,,,,,,,,,,,,,,,,,,f,0,1.854152667,,,,,,,,,,,,,,,,,,888,1,2021_Sep_07_1438,joplin1,2021.2.3,59.93522488
,0 1 1 1 1 1 1 1 0 1,8,categoryA,f,genfile2.csv,0,,,,,,,,,0,1,1,1,0,16,16,49,,,,,,,,,,,,,,,,,,,,,,,,j,0,0.573736333,,,,,,,,,,,,,,,,,,888,1,2021_Sep_07_1438,joplin1,2021.2.3,59.93522488
,1 1 0 1 1 1 1 0 1 1,8,categoryA,f,genfile2.csv,1,,,,,,,,,0,1,1,1,0,17,17,14,,,,,,,,,,,,,,,,,,,,,,,,f,1,1.707970208,,,,,,,,,,,,,,,,,,888,1,2021_Sep_07_1438,joplin1,2021.2.3,59.93522488
,1 0 1 0 0 1 0 1 1 1,6,categoryA,f,genfile2.csv,0,,,,,,,,,0,1,1,1,0,18,18,39,,,,,,,,,,,,,,,,,,,,,,,,f,1,1.851942833,,,,,,,,,,,,,,,,,,888,1,2021_Sep_07_1438,joplin1,2021.2.3,59.93522488
,0 1 1 1 1 1 1 1 1 0,8,categoryA,f,genfile2.csv,1,,,,,,,,,0,1,1,1,0,19,19,9,,,,,,,,,,,,,,,,,,,,,,,,j,0,1.128417458,,,,,,,,,,,,,,,,,,888,1,2021_Sep_07_1438,joplin1,2021.2.3,59.93522488
,0 0 1 1 1 1 1 1 0 0,6,categoryA,f,genfile2.csv,1,,,,,,,,,0,1,1,1,0,20,20,15,,,,,,,,,,,,,,,,,,,,,,,,j,0,0.833255792,,,,,,,,,,,,,,,,,,888,1,2021_Sep_07_1438,joplin1,2021.2.3,59.93522488
,0 1 0 0 0 0 0 0 1 0,2,categoryB,j,genfile2.csv,1,,,,,,,,,0,1,1,1,0,21,21,3,,,,,,,,,,,,,,,,,,,,,,,,f,0,0.846653834,,,,,,,,,,,,,,,,,,888,1,2021_Sep_07_1438,joplin1,2021.2.3,59.93522488
,1 1 1 0 1 0 0 1 0 1,6,categoryA,f,genfile2.csv,0,,,,,,,,,0,1,1,1,0,22,22,38,,,,,,,,,,,,,,,,,,,,,,,,f,1,1.327627542,,,,,,,,,,,,,,,,,,888,1,2021_Sep_07_1438,joplin1,2021.2.3,59.93522488
,1 1 1 1 0 1 1 0 1 1,8,categoryA,f,genfile2.csv,0,,,,,,,,,0,1,1,1,0,23,23,50,,,,,,,,,,,,,,,,,,,,,,,,j,0,0.599371417,,,,,,,,,,,,,,,,,,888,1,2021_Sep_07_1438,joplin1,2021.2.3,59.93522488
,0 0 1 0 0 0 0 1 0 0,2,categoryB,j,genfile2.csv,1,,,,,,,,,0,1,1,1,0,24,24,7,,,,,,,,,,,,,,,,,,,,,,,,f,0,1.205943958,,,,,,,,,,,,,,,,,,888,1,2021_Sep_07_1438,joplin1,2021.2.3,59.93522488
,0 1 0 0 0 0 0 1 1 0,3,categoryB,j,genfile2.csv,0,,,,,,,,,0,1,1,1,0,25,25,28,,,,,,,,,,,,,,,,,,,,,,,,j,1,0.841449875,,,,,,,,,,,,,,,,,,888,1,2021_Sep_07_1438,joplin1,2021.2.3,59.93522488
,1 0 0 0 0 1 1 0 1 0,4,categoryB,j,genfile2.csv,0,,,,,,,,,0,1,1,1,0,26,26,33,,,,,,,,,,,,,,,,,,,,,,,,j,1,1.652059416,,,,,,,,,,,,,,,,,,888,1,2021_Sep_07_1438,joplin1,2021.2.3,59.93522488
,1 0 1 1 1 1 1 1 1 1,9,categoryA,f,genfile2.csv,0,,,,,,,,,0,1,1,1,0,27,27,55,,,,,,,,,,,,,,,,,,,,,,,,None,0,,,,,,,,,,,,,,,,,,,888,1,2021_Sep_07_1438,joplin1,2021.2.3,59.93522488
,1 1 1 0 1 0 1 1 1 1,8,categoryA,f,genfile2.csv,0,,,,,,,,,0,1,1,1,0,28,28,47,,,,,,,,,,,,,,,,,,,,,,,,j,0,0.001913083,,,,,,,,,,,,,,,,,,888,1,2021_Sep_07_1438,joplin1,2021.2.3,59.93522488
,1 1 0 1 0 0 1 0 1 1,6,categoryA,f,genfile2.csv,1,,,,,,,,,0,1,1,1,0,29,29,11,,,,,,,,,,,,,,,,,,,,,,,,f,1,0.031010375,,,,,,,,,,,,,,,,,,888,1,2021_Sep_07_1438,joplin1,2021.2.3,59.93522488
,1 1 1 0 1 1 1 1 1 1,9,categoryA,f,genfile2.csv,0,,,,,,,,,0,1,1,1,0,30,30,51,,,,,,,,,,,,,,,,,,,,,,,,j,0,0.058272667,,,,,,,,,,,,,,,,,,888,1,2021_Sep_07_1438,joplin1,2021.2.3,59.93522488
,1 1 0 1 1 1 0 1 1 1,8,categoryA,f,genfile2.csv,0,,,,,,,,,0,1,1,1,0,31,31,46,,,,,,,,,,,,,,,,,,,,,,,,f,1,0.285447125,,,,,,,,,,,,,,,,,,888,1,2021_Sep_07_1438,joplin1,2021.2.3,59.93522488
,1 0 0 1 0 0 0 0 0 0,2,categoryB,j,genfile2.csv,0,,,,,,,,,0,1,1,1,0,32,32,23,,,,,,,,,,,,,,,,,,,,,,,,j,1,1.31648575,,,,,,,,,,,,,,,,,,888,1,2021_Sep_07_1438,joplin1,2021.2.3,59.93522488
,1 1 1 1 1 1 1 1 1 1,10,categoryA,f,genfile2.csv,0,,,,,,,,,0,1,1,1,0,33,33,1,,,,,,,,,,,,,,,,,,,,,,,,j,0,1.101767583,,,,,,,,,,,,,,,,,,888,1,2021_Sep_07_1438,joplin1,2021.2.3,59.93522488
,0 1 0 1 0 1 1 0 0 0,4,categoryB,j,genfile2.csv,0,,,,,,,,,0,1,1,1,0,34,34,35,,,,,,,,,,,,,,,,,,,,,,,,j,1,1.009870416,,,,,,,,,,,,,,,,,,888,1,2021_Sep_07_1438,joplin1,2021.2.3,59.93522488
,1 1 1 1 0 1 1 1 0 1,8,categoryA,f,genfile2.csv,0,,,,,,,,,0,1,1,1,0,35,35,48,,,,,,,,,,,,,,,,,,,,,,,,f,1,0.630661959,,,,,,,,,,,,,,,,,,888,1,2021_Sep_07_1438,joplin1,2021.2.3,59.93522488
,0 0 0 0 0 1 0 0 1 0,2,categoryB,j,genfile2.csv,0,,,,,,,,,0,1,1,1,0,36,36,22,,,,,,,,,,,,,,,,,,,,,,,,f,0,1.131116708,,,,,,,,,,,,,,,,,,888,1,2021_Sep_07_1438,joplin1,2021.2.3,59.93522488
,1 0 1 1 1 1 1 1 0 1,8,categoryA,f,genfile2.csv,1,,,,,,,,,0,1,1,1,0,37,37,10,,,,,,,,,,,,,,,,,,,,,,,,j,0,1.163035208,,,,,,,,,,,,,,,,,,888,1,2021_Sep_07_1438,joplin1,2021.2.3,59.93522488
,1 1 1 0 1 1 0 1 1 1,8,categoryA,f,genfile2.csv,1,,,,,,,,,0,1,1,1,0,38,38,13,,,,,,,,,,,,,,,,,,,,,,,,f,1,1.146415292,,,,,,,,,,,,,,,,,,888,1,2021_Sep_07_1438,joplin1,2021.2.3,59.93522488
,1 1 1 0 0 1 1 0 1 1,7,categoryA,f,genfile2.csv,0,,,,,,,,,0,1,1,1,0,39,39,42,,,,,,,,,,,,,,,,,,,,,,,,j,0,1.008231209,,,,,,,,,,,,,,,,,,888,1,2021_Sep_07_1438,joplin1,2021.2.3,59.93522488
,1 1 1 0 0 0 0 1 1 1,6,categoryA,f,genfile2.csv,1,,,,,,,,,0,1,1,1,0,40,40,12,,,,,,,,,,,,,,,,,,,,,,,,f,1,1.23049025,,,,,,,,,,,,,,,,,,888,1,2021_Sep_07_1438,joplin1,2021.2.3,59.93522488
,0 0 0 0 0 0 0 0 1 0,1,categoryB,j,genfile2.csv,0,,,,,,,,,0,1,1,1,0,41,41,16,,,,,,,,,,,,,,,,,,,,,,,,j,1,1.138093541,,,,,,,,,,,,,,,,,,888,1,2021_Sep_07_1438,joplin1,2021.2.3,59.93522488
,1 1 1 1 1 1 0 1 1 1,9,categoryA,f,genfile2.csv,0,,,,,,,,,0,1,1,1,0,42,42,53,,,,,,,,,,,,,,,,,,,,,,,,f,1,1.5925495,,,,,,,,,,,,,,,,,,888,1,2021_Sep_07_1438,joplin1,2021.2.3,59.93522488
,1 0 0 0 0 0 0 0 0 1,2,categoryB,j,genfile2.csv,1,,,,,,,,,0,1,1,1,0,43,43,2,,,,,,,,,,,,,,,,,,,,,,,,j,1,1.318343459,,,,,,,,,,,,,,,,,,888,1,2021_Sep_07_1438,joplin1,2021.2.3,59.93522488
,0 0 0 0 0 0 0 0 0 0,0,categoryB,j,genfile2.csv,0,,,,,,,,,0,1,1,1,0,44,44,0,,,,,,,,,,,,,,,,,,,,,,,,f,0,1.487890584,,,,,,,,,,,,,,,,,,888,1,2021_Sep_07_1438,joplin1,2021.2.3,59.93522488
,0 0 0 1 0 0 1 0 0 0,2,categoryB,j,genfile2.csv,1,,,,,,,,,0,1,1,1,0,45,45,6,,,,,,,,,,,,,,,,,,,,,,,,f,0,1.986623917,,,,,,,,,,,,,,,,,,888,1,2021_Sep_07_1438,joplin1,2021.2.3,59.93522488
,1 1 0 0 0 1 0 0 0 0,3,categoryB,j,genfile2.csv,0,,,,,,,,,0,1,1,1,0,46,46,30,,,,,,,,,,,,,,,,,,,,,,,,j,1,1.358826625,,,,,,,,,,,,,,,,,,888,1,2021_Sep_07_1438,joplin1,2021.2.3,59.93522488
,1 1 1 1 1 1 1 1 0 1,9,categoryA,f,genfile2.csv,0,,,,,,,,,0,1,1,1,0,47,47,52,,,,,,,,,,,,,,,,,,,,,,,,j,0,1.36459975,,,,,,,,,,,,,,,,,,888,1,2021_Sep_07_1438,joplin1,2021.2.3,59.93522488
,0 0 1 0 1 1 0 1 0 0,4,categoryB,j,genfile2.csv,1,,,,,,,,,0,1,1,1,0,48,48,4,,,,,,,,,,,,,,,,,,,,,,,,f,0,1.669760583,,,,,,,,,,,,,,,,,,888,1,2021_Sep_07_1438,joplin1,2021.2.3,59.93522488
,1 1 0 0 1 1 0 1 1 0,6,categoryA,f,genfile2.csv,0,,,,,,,,,0,1,1,1,0,49,49,40,,,,,,,,,,,,,,,,,,,,,,,,f,1,1.270819708,,,,,,,,,,,,,,,,,,888,1,2021_Sep_07_1438,joplin1,2021.2.3,59.93522488
,1 0 1 1 0 1 0 0 0 0,4,categoryB,j,genfile2.csv,0,,,,,,,,,0,1,1,1,0,50,50,32,,,,,,,,,,,,,,,,,,,,,,,,j,1,0.797385083,,,,,,,,,,,,,,,,,,888,1,2021_Sep_07_1438,joplin1,2021.2.3,59.93522488
,0 0 0 0 0 1 0 0 0 1,2,categoryB,j,genfile2.csv,0,,,,,,,,,0,1,1,1,0,51,51,24,,,,,,,,,,,,,,,,,,,,,,,,j,1,1.489834875,,,,,,,,,,,,,,,,,,888,1,2021_Sep_07_1438,joplin1,2021.2.3,59.93522488
,0 0 0 1 0 1 0 1 0 0,3,categoryB,j,genfile2.csv,0,,,,,,,,,0,1,1,1,0,52,52,27,,,,,,,,,,,,,,,,,,,,,,,,j,1,1.48178675,,,,,,,,,,,,,,,,,,888,1,2021_Sep_07_1438,joplin1,2021.2.3,59.93522488
,0 0 0 1 1 1 1 0 0 0,4,categoryB,j,genfile2.csv,1,,,,,,,,,0,1,1,1,0,53,53,5,,,,,,,,,,,,,,,,,,,,,,,,f,0,1.637362166,,,,,,,,,,,,,,,,,,888,1,2021_Sep_07_1438,joplin1,2021.2.3,59.93522488
,0 1 1 0 0 1 1 1 1 0,6,categoryA,f,genfile2.csv,0,,,,,,,,,0,1,1,1,0,54,54,37,,,,,,,,,,,,,,,,,,,,,,,,j,0,1.255351959,,,,,,,,,,,,,,,,,,888,1,2021_Sep_07_1438,joplin1,2021.2.3,59.93522488
,0 0 0 1 0 1 1 0 0 0,3,categoryB,j,genfile2.csv,0,,,,,,,,,0,1,1,1,0,55,55,26,,,,,,,,,,,,,,,,,,,,,,,,f,0,1.67971175,,,,,,,,,,,,,,,,,,888,1,2021_Sep_07_1438,joplin1,2021.2.3,59.93522488
,,,,,genfile2.csv,,,,,,,,,,0,1,1,1,,,,,,,,,,,,,,,,,,space,20.87502063,,,,,,,,,,,,,,,,,,,,,,,,,,,,,888,1,2021_Sep_07_1438,joplin1,2021.2.3,59.93522488
,,,,,,,,,,,,,,,,,,,,,,,,,,,,,,,,,,,,,,,,,,,,,,,,,None,,,,,,,,,,,,,,,,,888,1,2021_Sep_07_1438,joplin1,2021.2.3,59.93522488
,,,,,,,,,,,,,,,,,,,,,,,,,,,,,,,,,,,,,,,,,,,,,,,,,,None,,,,,,,,,,,,,,,,888,1,2021_Sep_07_1438,joplin1,2021.2.3,59.93522488
,,,,,,,,,,,,,,,,,,,,,,,,,,,,,,,,,,,,,,,,,,,,,,,,,,,0.7,radio,0.3,Are you Hispanic/Latino?,0,None,None,None,None,,,,,,,888,1,2021_Sep_07_1438,joplin1,2021.2.3,59.93522488
,,,,,,,,,,,,,,,,,,,,,,,,,,,,,,,,,,,,,,,,,,,,,,,,,,,0.7,radio,0.3,Are you an American Indian or Alaska Native?,1,None,None,None,None,,,,,,,888,1,2021_Sep_07_1438,joplin1,2021.2.3,59.93522488
,,,,,,,,,,,,,,,,,,,,,,,,,,,,,,,,,,,,,,,,,,,,,,,,,,,0.7,radio,0.3,Are you Asian?,2,None,None,None,None,,,,,,,888,1,2021_Sep_07_1438,joplin1,2021.2.3,59.93522488
,,,,,,,,,,,,,,,,,,,,,,,,,,,,,,,,,,,,,,,,,,,,,,,,,,,0.7,radio,0.3,Are you Black or African American?,3,None,None,None,None,,,,,,,888,1,2021_Sep_07_1438,joplin1,2021.2.3,59.93522488
,,,,,,,,,,,,,,,,,,,,,,,,,,,,,,,,,,,,,,,,,,,,,,,,,,,0.7,radio,0.3,Are you a Native Hawaiian or other Pacific Islander?,4,None,None,None,None,,,,,,,888,1,2021_Sep_07_1438,joplin1,2021.2.3,59.93522488
,,,,,,,,,,,,,,,,,,,,,,,,,,,,,,,,,,,,,,,,,,,,,,,,,,,0.7,radio,0.3,Are you White?,5,None,None,None,None,,,,,,,888,1,2021_Sep_07_1438,joplin1,2021.2.3,59.93522488
,,,,,,,,,,,,,,,,,,,,,,,,,,,,,,,,,,,,,,,,,,,,,,,,,,,0.85,radio,0.3,"Do you have any history of neurological issues such as stroke, head injury or a neurodegenerative disorder?",6,None,None,None,None,,,,,,,888,1,2021_Sep_07_1438,joplin1,2021.2.3,59.93522488
,,,,,,,,,,,,,,,,,,,,,,,,,,,,,,,,,,,,,,,,,,,,,,,,,,,,,,,,,,,,None,,,,,,888,1,2021_Sep_07_1438,joplin1,2021.2.3,59.93522488
,,,,,,,,,,,,,,,,,,,,,,,,,,,,,,,,,,,,,,,,,,,,,,,,,,,,,,,,,,,,,None,,,,,888,1,2021_Sep_07_1438,joplin1,2021.2.3,59.93522488
,,,,,,,,,,,,,,,,,,,,,,,,,,,,,,,,,,,,,,,,,,,,,,,,,,,,,,,,,,,,,,,,None,,888,1,2021_Sep_07_1438,joplin1,2021.2.3,59.93522488