train_set,stim_id,sums_feat,category,correct_key,gen_file,train_item,train_runs.thisRepN,train_runs.thisTrialN,train_runs.thisN,train_runs.thisIndex,train_trials.thisRepN,train_trials.thisTrialN,train_trials.thisN,train_trials.thisIndex,test_runs.thisRepN,test_runs.thisTrialN,test_runs.thisN,test_runs.thisIndex,test_trials.thisRepN,test_trials.thisTrialN,test_trials.thisN,test_trials.thisIndex,welcome_key.keys,welcome_key.rt,welcome_key.started,welcome_key.stopped,train_inst1_key.keys,train_inst1_key.rt,train_inst2_key.keys,train_inst2_key.rt,train_begin_key.keys,train_begin_key.rt,train_key.keys,train_key.corr,train_key.rt,break_key.keys,break_key.rt,key_resp.keys,key_resp.rt,test_inst1_key.keys,test_inst1_key.rt,test_inst2_key.keys,test_inst2_key.rt,test_begin_key.keys,test_begin_key.rt,test_key.keys,test_key.corr,test_key.rt,test_end_key.keys,test_end_key.rt,demo_inst1_key.keys,demo_inst1_key.rt,form.questionWidth,form.type,form.respWidth,form.itemText,form.index,form.font,form.markerColor,form.response,form.rt,form_key.keys,form_key.rt,demo_inst2_key.keys,demo_inst2_key.rt,gender_string,age_string,demo4_key.keys,demo4_key.rt,typedWord,participant,session,date,expName,psychopyVersion,frameRate,
,,,,,,,,,,,,,,,,,,,,,,,space,64.30342904200006,37.39362020800036,None,,,,,,,,,,,,,,,,,,,,,,,,,,,,,,,,,,,,,,,,,,,,,888,002,2021_Sep_10_1053,joplin1,2021.2.3,59.96619405799938,
,,,,,,,,,,,,,,,,,,,,,,,,,,,j,12.43532070800029,,,,,,,,,,,,,,,,,,,,,,,,,,,,,,,,,,,,,,,,,,,888,002,2021_Sep_10_1053,joplin1,2021.2.3,59.96619405799938,
,,,,,,,,,,,,,,,,,,,,,,,,,,,,,space,8.43076879199998,,,,,,,,,,,,,,,,,,,,,,,,,,,,,,,,,,,,,,,,,888,002,2021_Sep_10_1053,joplin1,2021.2.3,59.96619405799938,
,,,,,,,,,,,,,,,,,,,,,,,,,,,,,,,space,1.81246099999953,,,,,,,,,,,,,,,,,,,,,,,,,,,,,,,,,,,,,,,888,002,2021_Sep_10_1053,joplin1,2021.2.3,59.96619405799938,
_train_cond.csv,1 0 1 1 1 1 1 1 0 1,8,categoryA,f,,,0,0,0,7,0,0,0,8,,,,,,,,,,,,,,,,,,,j,0,0.9538640000000669,,,,,,,,,,,,,,,,,,,,,,,,,,,,,,,,,,,,888,002,2021_Sep_10_1053,joplin1,2021.2.3,59.96619405799938,
_train_cond.csv,0 1 0 0 0 0 0 0 1 0,2,categoryB,j,,,0,0,0,7,0,1,1,1,,,,,,,,,,,,,,,,,,,j,1,0.6590400000004593,,,,,,,,,,,,,,,,,,,,,,,,,,,,,,,,,,,,888,002,2021_Sep_10_1053,joplin1,2021.2.3,59.96619405799938,
_train_cond.csv,0 0 1 0 1 1 0 1 0 0,4,categoryB,j,,,0,0,0,7,0,2,2,2,,,,,,,,,,,,,,,,,,,j,1,0.7803008749997389,,,,,,,,,,,,,,,,,,,,,,,,,,,,,,,,,,,,888,002,2021_Sep_10_1053,joplin1,2021.2.3,59.96619405799938,
_train_cond.csv,0 1 1 1 1 1 1 1 1 0,8,categoryA,f,,,0,0,0,7,0,3,3,7,,,,,,,,,,,,,,,,,,,j,0,0.5282026660006522,,,,,,,,,,,,,,,,,,,,,,,,,,,,,,,,,,,,888,002,2021_Sep_10_1053,joplin1,2021.2.3,59.96619405799938,
_train_cond.csv,1 0 0 0 0 0 0 0 0 1,2,categoryB,j,,,0,0,0,7,0,4,4,0,,,,,,,,,,,,,,,,,,,f,0,0.47107929100002366,,,,,,,,,,,,,,,,,,,,,,,,,,,,,,,,,,,,888,002,2021_Sep_10_1053,joplin1,2021.2.3,59.96619405799938,
_train_cond.csv,0 0 0 1 0 0 1 0 0 0,2,categoryB,j,,,0,0,0,7,0,5,5,4,,,,,,,,,,,,,,,,,,,j,1,0.29207579099966097,,,,,,,,,,,,,,,,,,,,,,,,,,,,,,,,,,,,888,002,2021_Sep_10_1053,joplin1,2021.2.3,59.96619405799938,
_train_cond.csv,1 1 0 0 0 0 0 0 1 1,4,categoryB,j,,,0,0,0,7,0,6,6,6,,,,,,,,,,,,,,,,,,,j,1,0.7152505829999427,,,,,,,,,,,,,,,,,,,,,,,,,,,,,,,,,,,,888,002,2021_Sep_10_1053,joplin1,2021.2.3,59.96619405799938,
_train_cond.csv,0 0 1 0 0 0 0 1 0 0,2,categoryB,j,,,0,0,0,7,0,7,7,5,,,,,,,,,,,,,,,,,,,f,0,0.4433450830001675,,,,,,,,,,,,,,,,,,,,,,,,,,,,,,,,,,,,888,002,2021_Sep_10_1053,joplin1,2021.2.3,59.96619405799938,
_train_cond.csv,1 1 1 0 0 0 0 1 1 1,6,categoryA,f,,,0,0,0,7,0,8,8,10,,,,,,,,,,,,,,,,,,,j,0,0.3535770409998804,,,,,,,,,,,,,,,,,,,,,,,,,,,,,,,,,,,,888,002,2021_Sep_10_1053,joplin1,2021.2.3,59.96619405799938,
_train_cond.csv,0 0 0 1 1 1 1 0 0 0,4,categoryB,j,,,0,0,0,7,0,9,9,3,,,,,,,,,,,,,,,,,,,j,1,0.4673748750001323,,,,,,,,,,,,,,,,,,,,,,,,,,,,,,,,,,,,888,002,2021_Sep_10_1053,joplin1,2021.2.3,59.96619405799938,
_train_cond.csv,1 1 1 0 1 1 0 1 1 1,8,categoryA,f,,,0,0,0,7,0,10,10,11,,,,,,,,,,,,,,,,,,,f,1,0.2668570000005275,,,,,,,,,,,,,,,,,,,,,,,,,,,,,,,,,,,,888,002,2021_Sep_10_1053,joplin1,2021.2.3,59.96619405799938,
_train_cond.csv,0 0 1 1 1 1 1 1 0 0,6,categoryA,f,,,0,0,0,7,0,11,11,13,,,,,,,,,,,,,,,,,,,f,1,0.2837531670002136,,,,,,,,,,,,,,,,,,,,,,,,,,,,,,,,,,,,888,002,2021_Sep_10_1053,joplin1,2021.2.3,59.96619405799938,
_train_cond.csv,1 1 0 1 0 0 1 0 1 1,6,categoryA,f,,,0,0,0,7,0,12,12,9,,,,,,,,,,,,,,,,,,,j,0,0.234989042000052,,,,,,,,,,,,,,,,,,,,,,,,,,,,,,,,,,,,888,002,2021_Sep_10_1053,joplin1,2021.2.3,59.96619405799938,
_train_cond.csv,1 1 0 1 1 1 1 0 1 1,8,categoryA,f,,,0,0,0,7,0,13,13,12,,,,,,,,,,,,,,,,,,,f,1,0.3112083749992962,,,,,,,,,,,,,,,,,,,,,,,,,,,,,,,,,,,,888,002,2021_Sep_10_1053,joplin1,2021.2.3,59.96619405799938,
_train_cond.csv,1 1 1 0 0 0 0 1 1 1,6,categoryA,f,,,0,0,0,7,1,0,14,10,,,,,,,,,,,,,,,,,,,f,1,0.6197648749994187,,,,,,,,,,,,,,,,,,,,,,,,,,,,,,,,,,,,888,002,2021_Sep_10_1053,joplin1,2021.2.3,59.96619405799938,
_train_cond.csv,1 1 0 1 1 1 1 0 1 1,8,categoryA,f,,,0,0,0,7,1,1,15,12,,,,,,,,,,,,,,,,,,,f,1,0.30326412500016886,,,,,,,,,,,,,,,,,,,,,,,,,,,,,,,,,,,,888,002,2021_Sep_10_1053,joplin1,2021.2.3,59.96619405799938,
_train_cond.csv,1 1 0 0 0 0 0 0 1 1,4,categoryB,j,,,0,0,0,7,1,2,16,6,,,,,,,,,,,,,,,,,,,j,1,0.23763283299922477,,,,,,,,,,,,,,,,,,,,,,,,,,,,,,,,,,,,888,002,2021_Sep_10_1053,joplin1,2021.2.3,59.96619405799938,
_train_cond.csv,0 0 0 1 1 1 1 0 0 0,4,categoryB,j,,,0,0,0,7,1,3,17,3,,,,,,,,,,,,,,,,,,,f,0,0.4624874589999308,,,,,,,,,,,,,,,,,,,,,,,,,,,,,,,,,,,,888,002,2021_Sep_10_1053,joplin1,2021.2.3,59.96619405799938,
_train_cond.csv,1 0 0 0 0 0 0 0 0 1,2,categoryB,j,,,0,0,0,7,1,4,18,0,,,,,,,,,,,,,,,,,,,j,1,0.26253300000007584,,,,,,,,,,,,,,,,,,,,,,,,,,,,,,,,,,,,888,002,2021_Sep_10_1053,joplin1,2021.2.3,59.96619405799938,
_train_cond.csv,0 1 0 0 0 0 0 0 1 0,2,categoryB,j,,,0,0,0,7,1,5,19,1,,,,,,,,,,,,,,,,,,,j,1,0.3214765000002444,,,,,,,,,,,,,,,,,,,,,,,,,,,,,,,,,,,,888,002,2021_Sep_10_1053,joplin1,2021.2.3,59.96619405799938,
_train_cond.csv,0 0 1 0 1 1 0 1 0 0,4,categoryB,j,,,0,0,0,7,1,6,20,2,,,,,,,,,,,,,,,,,,,f,0,0.4951547919999939,,,,,,,,,,,,,,,,,,,,,,,,,,,,,,,,,,,,888,002,2021_Sep_10_1053,joplin1,2021.2.3,59.96619405799938,
_train_cond.csv,1 0 1 1 1 1 1 1 0 1,8,categoryA,f,,,0,0,0,7,1,7,21,8,,,,,,,,,,,,,,,,,,,j,0,0.35530074999951466,,,,,,,,,,,,,,,,,,,,,,,,,,,,,,,,,,,,888,002,2021_Sep_10_1053,joplin1,2021.2.3,59.96619405799938,
_train_cond.csv,1 1 1 0 1 1 0 1 1 1,8,categoryA,f,,,0,0,0,7,1,8,22,11,,,,,,,,,,,,,,,,,,,f,1,0.7186356669999441,,,,,,,,,,,,,,,,,,,,,,,,,,,,,,,,,,,,888,002,2021_Sep_10_1053,joplin1,2021.2.3,59.96619405799938,
_train_cond.csv,0 0 0 1 0 0 1 0 0 0,2,categoryB,j,,,0,0,0,7,1,9,23,4,,,,,,,,,,,,,,,,,,,j,1,0.4177475839996987,,,,,,,,,,,,,,,,,,,,,,,,,,,,,,,,,,,,888,002,2021_Sep_10_1053,joplin1,2021.2.3,59.96619405799938,
_train_cond.csv,0 0 1 1 1 1 1 1 0 0,6,categoryA,f,,,0,0,0,7,1,10,24,13,,,,,,,,,,,,,,,,,,,j,0,0.7522284169999693,,,,,,,,,,,,,,,,,,,,,,,,,,,,,,,,,,,,888,002,2021_Sep_10_1053,joplin1,2021.2.3,59.96619405799938,
_train_cond.csv,0 0 1 0 0 0 0 1 0 0,2,categoryB,j,,,0,0,0,7,1,11,25,5,,,,,,,,,,,,,,,,,,,f,0,0.4156346660001873,,,,,,,,,,,,,,,,,,,,,,,,,,,,,,,,,,,,888,002,2021_Sep_10_1053,joplin1,2021.2.3,59.96619405799938,
_train_cond.csv,0 1 1 1 1 1 1 1 1 0,8,categoryA,f,,,0,0,0,7,1,12,26,7,,,,,,,,,,,,,,,,,,,f,1,1.1302020829998582,,,,,,,,,,,,,,,,,,,,,,,,,,,,,,,,,,,,888,002,2021_Sep_10_1053,joplin1,2021.2.3,59.96619405799938,
_train_cond.csv,1 1 0 1 0 0 1 0 1 1,6,categoryA,f,,,0,0,0,7,1,13,27,9,,,,,,,,,,,,,,,,,,,j,0,0.435408667000047,,,,,,,,,,,,,,,,,,,,,,,,,,,,,,,,,,,,888,002,2021_Sep_10_1053,joplin1,2021.2.3,59.96619405799938,
_train_cond.csv,0 0 0 1 0 0 1 0 0 0,2,categoryB,j,,,0,0,0,7,2,0,28,4,,,,,,,,,,,,,,,,,,,j,1,0.6366511670003092,,,,,,,,,,,,,,,,,,,,,,,,,,,,,,,,,,,,888,002,2021_Sep_10_1053,joplin1,2021.2.3,59.96619405799938,
_train_cond.csv,0 1 0 0 0 0 0 0 1 0,2,categoryB,j,,,0,0,0,7,2,1,29,1,,,,,,,,,,,,,,,,,,,j,1,0.4276160830004301,,,,,,,,,,,,,,,,,,,,,,,,,,,,,,,,,,,,888,002,2021_Sep_10_1053,joplin1,2021.2.3,59.96619405799938,
_train_cond.csv,1 1 1 0 1 1 0 1 1 1,8,categoryA,f,,,0,0,0,7,2,2,30,11,,,,,,,,,,,,,,,,,,,f,1,0.2953775410005619,,,,,,,,,,,,,,,,,,,,,,,,,,,,,,,,,,,,888,002,2021_Sep_10_1053,joplin1,2021.2.3,59.96619405799938,
_train_cond.csv,1 1 0 1 0 0 1 0 1 1,6,categoryA,f,,,0,0,0,7,2,3,31,9,,,,,,,,,,,,,,,,,,,f,1,0.4424460829995951,,,,,,,,,,,,,,,,,,,,,,,,,,,,,,,,,,,,888,002,2021_Sep_10_1053,joplin1,2021.2.3,59.96619405799938,
_train_cond.csv,0 0 0 1 1 1 1 0 0 0,4,categoryB,j,,,0,0,0,7,2,4,32,3,,,,,,,,,,,,,,,,,,,j,1,0.3008537920004528,,,,,,,,,,,,,,,,,,,,,,,,,,,,,,,,,,,,888,002,2021_Sep_10_1053,joplin1,2021.2.3,59.96619405799938,
_train_cond.csv,0 0 1 1 1 1 1 1 0 0,6,categoryA,f,,,0,0,0,7,2,5,33,13,,,,,,,,,,,,,,,,,,,j,0,0.8661755000002813,,,,,,,,,,,,,,,,,,,,,,,,,,,,,,,,,,,,888,002,2021_Sep_10_1053,joplin1,2021.2.3,59.96619405799938,
_train_cond.csv,1 0 0 0 0 0 0 0 0 1,2,categoryB,j,,,0,0,0,7,2,6,34,0,,,,,,,,,,,,,,,,,,,j,1,0.306388459000118,,,,,,,,,,,,,,,,,,,,,,,,,,,,,,,,,,,,888,002,2021_Sep_10_1053,joplin1,2021.2.3,59.96619405799938,
_train_cond.csv,1 1 0 0 0 0 0 0 1 1,4,categoryB,j,,,0,0,0,7,2,7,35,6,,,,,,,,,,,,,,,,,,,f,0,0.5270743750006659,,,,,,,,,,,,,,,,,,,,,,,,,,,,,,,,,,,,888,002,2021_Sep_10_1053,joplin1,2021.2.3,59.96619405799938,
_train_cond.csv,0 0 1 0 0 0 0 1 0 0,2,categoryB,j,,,0,0,0,7,2,8,36,5,,,,,,,,,,,,,,,,,,,j,1,1.2512658329997066,,,,,,,,,,,,,,,,,,,,,,,,,,,,,,,,,,,,888,002,2021_Sep_10_1053,joplin1,2021.2.3,59.96619405799938,
_train_cond.csv,0 1 1 1 1 1 1 1 1 0,8,categoryA,f,,,0,0,0,7,2,9,37,7,,,,,,,,,,,,,,,,,,,f,1,0.3523274159997527,,,,,,,,,,,,,,,,,,,,,,,,,,,,,,,,,,,,888,002,2021_Sep_10_1053,joplin1,2021.2.3,59.96619405799938,
_train_cond.csv,1 1 0 1 1 1 1 0 1 1,8,categoryA,f,,,0,0,0,7,2,10,38,12,,,,,,,,,,,,,,,,,,,f,1,0.32582650000040303,,,,,,,,,,,,,,,,,,,,,,,,,,,,,,,,,,,,888,002,2021_Sep_10_1053,joplin1,2021.2.3,59.96619405799938,
_train_cond.csv,1 0 1 1 1 1 1 1 0 1,8,categoryA,f,,,0,0,0,7,2,11,39,8,,,,,,,,,,,,,,,,,,,f,1,0.9558664579999459,,,,,,,,,,,,,,,,,,,,,,,,,,,,,,,,,,,,888,002,2021_Sep_10_1053,joplin1,2021.2.3,59.96619405799938,
_train_cond.csv,1 1 1 0 0 0 0 1 1 1,6,categoryA,f,,,0,0,0,7,2,12,40,10,,,,,,,,,,,,,,,,,,,f,1,0.5389417080004932,,,,,,,,,,,,,,,,,,,,,,,,,,,,,,,,,,,,888,002,2021_Sep_10_1053,joplin1,2021.2.3,59.96619405799938,
_train_cond.csv,0 0 1 0 1 1 0 1 0 0,4,categoryB,j,,,0,0,0,7,2,13,41,2,,,,,,,,,,,,,,,,,,,j,1,0.668582416999925,,,,,,,,,,,,,,,,,,,,,,,,,,,,,,,,,,,,888,002,2021_Sep_10_1053,joplin1,2021.2.3,59.96619405799938,
_train_cond.csv,,,,,,,0,0,0,7,,,,,,,,,,,,,,,,,,,,,,,,,,space,2.296016999999665,,,,,,,,,,,,,,,,,,,,,,,,,,,,,,,,,,888,002,2021_Sep_10_1053,joplin1,2021.2.3,59.96619405799938,
_train_cond.csv,1 0 1 1 1 1 1 1 0 1,8,categoryA,f,,,0,1,1,3,0,0,0,8,,,,,,,,,,,,,,,,,,,f,1,0.8542124160003368,,,,,,,,,,,,,,,,,,,,,,,,,,,,,,,,,,,,888,002,2021_Sep_10_1053,joplin1,2021.2.3,59.96619405799938,
_train_cond.csv,0 0 1 0 0 0 0 1 0 0,2,categoryB,j,,,0,1,1,3,0,1,1,5,,,,,,,,,,,,,,,,,,,j,1,1.0312765829994532,,,,,,,,,,,,,,,,,,,,,,,,,,,,,,,,,,,,888,002,2021_Sep_10_1053,joplin1,2021.2.3,59.96619405799938,
_train_cond.csv,1 1 1 0 0 0 0 1 1 1,6,categoryA,f,,,0,1,1,3,0,2,2,10,,,,,,,,,,,,,,,,,,,f,1,0.3514076669998758,,,,,,,,,,,,,,,,,,,,,,,,,,,,,,,,,,,,888,002,2021_Sep_10_1053,joplin1,2021.2.3,59.96619405799938,
_train_cond.csv,1 1 1 0 1 1 0 1 1 1,8,categoryA,f,,,0,1,1,3,0,3,3,11,,,,,,,,,,,,,,,,,,,f,1,0.33037024999975984,,,,,,,,,,,,,,,,,,,,,,,,,,,,,,,,,,,,888,002,2021_Sep_10_1053,joplin1,2021.2.3,59.96619405799938,
_train_cond.csv,1 1 0 1 1 1 1 0 1 1,8,categoryA,f,,,0,1,1,3,0,4,4,12,,,,,,,,,,,,,,,,,,,j,0,0.4215102920006757,,,,,,,,,,,,,,,,,,,,,,,,,,,,,,,,,,,,888,002,2021_Sep_10_1053,joplin1,2021.2.3,59.96619405799938,
_train_cond.csv,1 0 0 0 0 0 0 0 0 1,2,categoryB,j,,,0,1,1,3,0,5,5,0,,,,,,,,,,,,,,,,,,,j,1,0.33810420899953897,,,,,,,,,,,,,,,,,,,,,,,,,,,,,,,,,,,,888,002,2021_Sep_10_1053,joplin1,2021.2.3,59.96619405799938,
_train_cond.csv,0 0 0 1 1 1 1 0 0 0,4,categoryB,j,,,0,1,1,3,0,6,6,3,,,,,,,,,,,,,,,,,,,j,1,0.6038779580003393,,,,,,,,,,,,,,,,,,,,,,,,,,,,,,,,,,,,888,002,2021_Sep_10_1053,joplin1,2021.2.3,59.96619405799938,
_train_cond.csv,1 1 0 0 0 0 0 0 1 1,4,categoryB,j,,,0,1,1,3,0,7,7,6,,,,,,,,,,,,,,,,,,,j,1,0.3946267909996095,,,,,,,,,,,,,,,,,,,,,,,,,,,,,,,,,,,,888,002,2021_Sep_10_1053,joplin1,2021.2.3,59.96619405799938,
_train_cond.csv,0 0 1 0 1 1 0 1 0 0,4,categoryB,j,,,0,1,1,3,0,8,8,2,,,,,,,,,,,,,,,,,,,f,0,0.3956235830000878,,,,,,,,,,,,,,,,,,,,,,,,,,,,,,,,,,,,888,002,2021_Sep_10_1053,joplin1,2021.2.3,59.96619405799938,
_train_cond.csv,0 1 1 1 1 1 1 1 1 0,8,categoryA,f,,,0,1,1,3,0,9,9,7,,,,,,,,,,,,,,,,,,,f,1,0.33720125000036205,,,,,,,,,,,,,,,,,,,,,,,,,,,,,,,,,,,,888,002,2021_Sep_10_1053,joplin1,2021.2.3,59.96619405799938,
_train_cond.csv,0 0 0 1 0 0 1 0 0 0,2,categoryB,j,,,0,1,1,3,0,10,10,4,,,,,,,,,,,,,,,,,,,j,1,0.308247458000551,,,,,,,,,,,,,,,,,,,,,,,,,,,,,,,,,,,,888,002,2021_Sep_10_1053,joplin1,2021.2.3,59.96619405799938,
_train_cond.csv,0 0 1 1 1 1 1 1 0 0,6,categoryA,f,,,0,1,1,3,0,11,11,13,,,,,,,,,,,,,,,,,,,f,1,0.4542977080000128,,,,,,,,,,,,,,,,,,,,,,,,,,,,,,,,,,,,888,002,2021_Sep_10_1053,joplin1,2021.2.3,59.96619405799938,
_train_cond.csv,1 1 0 1 0 0 1 0 1 1,6,categoryA,f,,,0,1,1,3,0,12,12,9,,,,,,,,,,,,,,,,,,,j,0,0.3179862500001036,,,,,,,,,,,,,,,,,,,,,,,,,,,,,,,,,,,,888,002,2021_Sep_10_1053,joplin1,2021.2.3,59.96619405799938,
_train_cond.csv,0 1 0 0 0 0 0 0 1 0,2,categoryB,j,,,0,1,1,3,0,13,13,1,,,,,,,,,,,,,,,,,,,j,1,0.2916885419999744,,,,,,,,,,,,,,,,,,,,,,,,,,,,,,,,,,,,888,002,2021_Sep_10_1053,joplin1,2021.2.3,59.96619405799938,
_train_cond.csv,0 0 1 1 1 1 1 1 0 0,6,categoryA,f,,,0,1,1,3,1,0,14,13,,,,,,,,,,,,,,,,,,,f,1,1.005472082999404,,,,,,,,,,,,,,,,,,,,,,,,,,,,,,,,,,,,888,002,2021_Sep_10_1053,joplin1,2021.2.3,59.96619405799938,
_train_cond.csv,0 0 0 1 1 1 1 0 0 0,4,categoryB,j,,,0,1,1,3,1,1,15,3,,,,,,,,,,,,,,,,,,,f,0,0.29288758400070947,,,,,,,,,,,,,,,,,,,,,,,,,,,,,,,,,,,,888,002,2021_Sep_10_1053,joplin1,2021.2.3,59.96619405799938,
_train_cond.csv,1 1 0 1 1 1 1 0 1 1,8,categoryA,f,,,0,1,1,3,1,2,16,12,,,,,,,,,,,,,,,,,,,j,0,0.950260999999955,,,,,,,,,,,,,,,,,,,,,,,,,,,,,,,,,,,,888,002,2021_Sep_10_1053,joplin1,2021.2.3,59.96619405799938,
_train_cond.csv,0 0 0 1 0 0 1 0 0 0,2,categoryB,j,,,0,1,1,3,1,3,17,4,,,,,,,,,,,,,,,,,,,j,1,0.30028620900156966,,,,,,,,,,,,,,,,,,,,,,,,,,,,,,,,,,,,888,002,2021_Sep_10_1053,joplin1,2021.2.3,59.96619405799938,
_train_cond.csv,1 1 0 0 0 0 0 0 1 1,4,categoryB,j,,,0,1,1,3,1,4,18,6,,,,,,,,,,,,,,,,,,,j,1,0.66915416700067,,,,,,,,,,,,,,,,,,,,,,,,,,,,,,,,,,,,888,002,2021_Sep_10_1053,joplin1,2021.2.3,59.96619405799938,
_train_cond.csv,1 0 1 1 1 1 1 1 0 1,8,categoryA,f,,,0,1,1,3,1,5,19,8,,,,,,,,,,,,,,,,,,,f,1,0.7800398330000462,,,,,,,,,,,,,,,,,,,,,,,,,,,,,,,,,,,,888,002,2021_Sep_10_1053,joplin1,2021.2.3,59.96619405799938,
_train_cond.csv,1 0 0 0 0 0 0 0 0 1,2,categoryB,j,,,0,1,1,3,1,6,20,0,,,,,,,,,,,,,,,,,,,f,0,0.31074612500015064,,,,,,,,,,,,,,,,,,,,,,,,,,,,,,,,,,,,888,002,2021_Sep_10_1053,joplin1,2021.2.3,59.96619405799938,
_train_cond.csv,1 1 0 1 0 0 1 0 1 1,6,categoryA,f,,,0,1,1,3,1,7,21,9,,,,,,,,,,,,,,,,,,,j,0,0.45204816600016784,,,,,,,,,,,,,,,,,,,,,,,,,,,,,,,,,,,,888,002,2021_Sep_10_1053,joplin1,2021.2.3,59.96619405799938,
_train_cond.csv,1 1 1 0 0 0 0 1 1 1,6,categoryA,f,,,0,1,1,3,1,8,22,10,,,,,,,,,,,,,,,,,,,f,1,0.3147546250002051,,,,,,,,,,,,,,,,,,,,,,,,,,,,,,,,,,,,888,002,2021_Sep_10_1053,joplin1,2021.2.3,59.96619405799938,
_train_cond.csv,1 1 1 0 1 1 0 1 1 1,8,categoryA,f,,,0,1,1,3,1,9,23,11,,,,,,,,,,,,,,,,,,,f,1,0.7715657919998193,,,,,,,,,,,,,,,,,,,,,,,,,,,,,,,,,,,,888,002,2021_Sep_10_1053,joplin1,2021.2.3,59.96619405799938,
_train_cond.csv,0 1 1 1 1 1 1 1 1 0,8,categoryA,f,,,0,1,1,3,1,10,24,7,,,,,,,,,,,,,,,,,,,f,1,0.35895445799906156,,,,,,,,,,,,,,,,,,,,,,,,,,,,,,,,,,,,888,002,2021_Sep_10_1053,joplin1,2021.2.3,59.96619405799938,
_train_cond.csv,0 0 1 0 1 1 0 1 0 0,4,categoryB,j,,,0,1,1,3,1,11,25,2,,,,,,,,,,,,,,,,,,,j,1,0.5405883750008798,,,,,,,,,,,,,,,,,,,,,,,,,,,,,,,,,,,,888,002,2021_Sep_10_1053,joplin1,2021.2.3,59.96619405799938,
_train_cond.csv,0 0 1 0 0 0 0 1 0 0,2,categoryB,j,,,0,1,1,3,1,12,26,5,,,,,,,,,,,,,,,,,,,j,1,0.4662474159995327,,,,,,,,,,,,,,,,,,,,,,,,,,,,,,,,,,,,888,002,2021_Sep_10_1053,joplin1,2021.2.3,59.96619405799938,
_train_cond.csv,0 1 0 0 0 0 0 0 1 0,2,categoryB,j,,,0,1,1,3,1,13,27,1,,,,,,,,,,,,,,,,,,,f,0,0.35879783400014276,,,,,,,,,,,,,,,,,,,,,,,,,,,,,,,,,,,,888,002,2021_Sep_10_1053,joplin1,2021.2.3,59.96619405799938,
_train_cond.csv,1 1 0 0 0 0 0 0 1 1,4,categoryB,j,,,0,1,1,3,2,0,28,6,,,,,,,,,,,,,,,,,,,j,1,0.3466845839993766,,,,,,,,,,,,,,,,,,,,,,,,,,,,,,,,,,,,888,002,2021_Sep_10_1053,joplin1,2021.2.3,59.96619405799938,
_train_cond.csv,0 0 1 0 1 1 0 1 0 0,4,categoryB,j,,,0,1,1,3,2,1,29,2,,,,,,,,,,,,,,,,,,,j,1,0.6295003750001342,,,,,,,,,,,,,,,,,,,,,,,,,,,,,,,,,,,,888,002,2021_Sep_10_1053,joplin1,2021.2.3,59.96619405799938,
_train_cond.csv,0 0 1 0 0 0 0 1 0 0,2,categoryB,j,,,0,1,1,3,2,2,30,5,,,,,,,,,,,,,,,,,,,j,1,0.2526931249994959,,,,,,,,,,,,,,,,,,,,,,,,,,,,,,,,,,,,888,002,2021_Sep_10_1053,joplin1,2021.2.3,59.96619405799938,
_train_cond.csv,1 0 1 1 1 1 1 1 0 1,8,categoryA,f,,,0,1,1,3,2,3,31,8,,,,,,,,,,,,,,,,,,,j,0,0.4473360000010871,,,,,,,,,,,,,,,,,,,,,,,,,,,,,,,,,,,,888,002,2021_Sep_10_1053,joplin1,2021.2.3,59.96619405799938,
_train_cond.csv,1 1 0 1 0 0 1 0 1 1,6,categoryA,f,,,0,1,1,3,2,4,32,9,,,,,,,,,,,,,,,,,,,j,0,0.2576270839999779,,,,,,,,,,,,,,,,,,,,,,,,,,,,,,,,,,,,888,002,2021_Sep_10_1053,joplin1,2021.2.3,59.96619405799938,
_train_cond.csv,0 0 0 1 0 0 1 0 0 0,2,categoryB,j,,,0,1,1,3,2,5,33,4,,,,,,,,,,,,,,,,,,,j,1,0.2858820840010594,,,,,,,,,,,,,,,,,,,,,,,,,,,,,,,,,,,,888,002,2021_Sep_10_1053,joplin1,2021.2.3,59.96619405799938,
_train_cond.csv,1 0 0 0 0 0 0 0 0 1,2,categoryB,j,,,0,1,1,3,2,6,34,0,,,,,,,,,,,,,,,,,,,j,1,0.9840873750017636,,,,,,,,,,,,,,,,,,,,,,,,,,,,,,,,,,,,888,002,2021_Sep_10_1053,joplin1,2021.2.3,59.96619405799938,
_train_cond.csv,1 1 1 0 0 0 0 1 1 1,6,categoryA,f,,,0,1,1,3,2,7,35,10,,,,,,,,,,,,,,,,,,,f,1,0.327291375000641,,,,,,,,,,,,,,,,,,,,,,,,,,,,,,,,,,,,888,002,2021_Sep_10_1053,joplin1,2021.2.3,59.96619405799938,
_train_cond.csv,0 0 1 1 1 1 1 1 0 0,6,categoryA,f,,,0,1,1,3,2,8,36,13,,,,,,,,,,,,,,,,,,,j,0,0.3071158330003527,,,,,,,,,,,,,,,,,,,,,,,,,,,,,,,,,,,,888,002,2021_Sep_10_1053,joplin1,2021.2.3,59.96619405799938,
_train_cond.csv,0 1 0 0 0 0 0 0 1 0,2,categoryB,j,,,0,1,1,3,2,9,37,1,,,,,,,,,,,,,,,,,,,j,1,0.8010685839999496,,,,,,,,,,,,,,,,,,,,,,,,,,,,,,,,,,,,888,002,2021_Sep_10_1053,joplin1,2021.2.3,59.96619405799938,
_train_cond.csv,0 0 0 1 1 1 1 0 0 0,4,categoryB,j,,,0,1,1,3,2,10,38,3,,,,,,,,,,,,,,,,,,,f,0,1.2111402079990512,,,,,,,,,,,,,,,,,,,,,,,,,,,,,,,,,,,,888,002,2021_Sep_10_1053,joplin1,2021.2.3,59.96619405799938,
_train_cond.csv,1 1 0 1 1 1 1 0 1 1,8,categoryA,f,,,0,1,1,3,2,11,39,12,,,,,,,,,,,,,,,,,,,j,0,0.33223187499970663,,,,,,,,,,,,,,,,,,,,,,,,,,,,,,,,,,,,888,002,2021_Sep_10_1053,joplin1,2021.2.3,59.96619405799938,
_train_cond.csv,0 1 1 1 1 1 1 1 1 0,8,categoryA,f,,,0,1,1,3,2,12,40,7,,,,,,,,,,,,,,,,,,,f,1,0.35806316699927265,,,,,,,,,,,,,,,,,,,,,,,,,,,,,,,,,,,,888,002,2021_Sep_10_1053,joplin1,2021.2.3,59.96619405799938,
_train_cond.csv,1 1 1 0 1 1 0 1 1 1,8,categoryA,f,,,0,1,1,3,2,13,41,11,,,,,,,,,,,,,,,,,,,f,1,0.8344118330005585,,,,,,,,,,,,,,,,,,,,,,,,,,,,,,,,,,,,888,002,2021_Sep_10_1053,joplin1,2021.2.3,59.96619405799938,
_train_cond.csv,,,,,,,0,1,1,3,,,,,,,,,,,,,,,,,,,,,,,,,,space,12.096231042,,,,,,,,,,,,,,,,,,,,,,,,,,,,,,,,,,888,002,2021_Sep_10_1053,joplin1,2021.2.3,59.96619405799938,
_train_cond.csv,0 0 1 1 1 1 1 1 0 0,6,categoryA,f,,,0,2,2,4,0,0,0,13,,,,,,,,,,,,,,,,,,,j,0,0.24131074999968405,,,,,,,,,,,,,,,,,,,,,,,,,,,,,,,,,,,,888,002,2021_Sep_10_1053,joplin1,2021.2.3,59.96619405799938,
_train_cond.csv,1 1 0 0 0 0 0 0 1 1,4,categoryB,j,,,0,2,2,4,0,1,1,6,,,,,,,,,,,,,,,,,,,j,1,0.3600545829995099,,,,,,,,,,,,,,,,,,,,,,,,,,,,,,,,,,,,888,002,2021_Sep_10_1053,joplin1,2021.2.3,59.96619405799938,
_train_cond.csv,0 0 1 0 1 1 0 1 0 0,4,categoryB,j,,,0,2,2,4,0,2,2,2,,,,,,,,,,,,,,,,,,,f,0,1.5936260829985258,,,,,,,,,,,,,,,,,,,,,,,,,,,,,,,,,,,,888,002,2021_Sep_10_1053,joplin1,2021.2.3,59.96619405799938,
_train_cond.csv,0 1 0 0 0 0 0 0 1 0,2,categoryB,j,,,0,2,2,4,0,3,3,1,,,,,,,,,,,,,,,,,,,j,1,0.30370666700036963,,,,,,,,,,,,,,,,,,,,,,,,,,,,,,,,,,,,888,002,2021_Sep_10_1053,joplin1,2021.2.3,59.96619405799938,
_train_cond.csv,1 0 1 1 1 1 1 1 0 1,8,categoryA,f,,,0,2,2,4,0,4,4,8,,,,,,,,,,,,,,,,,,,f,1,0.7874132090000785,,,,,,,,,,,,,,,,,,,,,,,,,,,,,,,,,,,,888,002,2021_Sep_10_1053,joplin1,2021.2.3,59.96619405799938,
_train_cond.csv,1 1 0 1 1 1 1 0 1 1,8,categoryA,f,,,0,2,2,4,0,5,5,12,,,,,,,,,,,,,,,,,,,f,1,0.42718383399915183,,,,,,,,,,,,,,,,,,,,,,,,,,,,,,,,,,,,888,002,2021_Sep_10_1053,joplin1,2021.2.3,59.96619405799938,
_train_cond.csv,1 0 0 0 0 0 0 0 0 1,2,categoryB,j,,,0,2,2,4,0,6,6,0,,,,,,,,,,,,,,,,,,,j,1,0.30395325000063167,,,,,,,,,,,,,,,,,,,,,,,,,,,,,,,,,,,,888,002,2021_Sep_10_1053,joplin1,2021.2.3,59.96619405799938,
_train_cond.csv,0 1 1 1 1 1 1 1 1 0,8,categoryA,f,,,0,2,2,4,0,7,7,7,,,,,,,,,,,,,,,,,,,f,1,0.2530942920002417,,,,,,,,,,,,,,,,,,,,,,,,,,,,,,,,,,,,888,002,2021_Sep_10_1053,joplin1,2021.2.3,59.96619405799938,
_train_cond.csv,0 0 1 0 0 0 0 1 0 0,2,categoryB,j,,,0,2,2,4,0,8,8,5,,,,,,,,,,,,,,,,,,,j,1,0.4457660420011962,,,,,,,,,,,,,,,,,,,,,,,,,,,,,,,,,,,,888,002,2021_Sep_10_1053,joplin1,2021.2.3,59.96619405799938,
_train_cond.csv,0 0 0 1 1 1 1 0 0 0,4,categoryB,j,,,0,2,2,4,0,9,9,3,,,,,,,,,,,,,,,,,,,j,1,0.5060774170015065,,,,,,,,,,,,,,,,,,,,,,,,,,,,,,,,,,,,888,002,2021_Sep_10_1053,joplin1,2021.2.3,59.96619405799938,
_train_cond.csv,0 0 0 1 0 0 1 0 0 0,2,categoryB,j,,,0,2,2,4,0,10,10,4,,,,,,,,,,,,,,,,,,,j,1,0.2826115839998238,,,,,,,,,,,,,,,,,,,,,,,,,,,,,,,,,,,,888,002,2021_Sep_10_1053,joplin1,2021.2.3,59.96619405799938,
_train_cond.csv,1 1 1 0 1 1 0 1 1 1,8,categoryA,f,,,0,2,2,4,0,11,11,11,,,,,,,,,,,,,,,,,,,f,1,0.23449650000111433,,,,,,,,,,,,,,,,,,,,,,,,,,,,,,,,,,,,888,002,2021_Sep_10_1053,joplin1,2021.2.3,59.96619405799938,
_train_cond.csv,1 1 1 0 0 0 0 1 1 1,6,categoryA,f,,,0,2,2,4,0,12,12,10,,,,,,,,,,,,,,,,,,,f,1,0.27485150000029535,,,,,,,,,,,,,,,,,,,,,,,,,,,,,,,,,,,,888,002,2021_Sep_10_1053,joplin1,2021.2.3,59.96619405799938,
_train_cond.csv,1 1 0 1 0 0 1 0 1 1,6,categoryA,f,,,0,2,2,4,0,13,13,9,,,,,,,,,,,,,,,,,,,f,1,0.23322095799994713,,,,,,,,,,,,,,,,,,,,,,,,,,,,,,,,,,,,888,002,2021_Sep_10_1053,joplin1,2021.2.3,59.96619405799938,
_train_cond.csv,0 0 1 1 1 1 1 1 0 0,6,categoryA,f,,,0,2,2,4,1,0,14,13,,,,,,,,,,,,,,,,,,,j,0,0.27107845799946517,,,,,,,,,,,,,,,,,,,,,,,,,,,,,,,,,,,,888,002,2021_Sep_10_1053,joplin1,2021.2.3,59.96619405799938,
_train_cond.csv,1 1 0 1 1 1 1 0 1 1,8,categoryA,f,,,0,2,2,4,1,1,15,12,,,,,,,,,,,,,,,,,,,f,1,0.5727166659999057,,,,,,,,,,,,,,,,,,,,,,,,,,,,,,,,,,,,888,002,2021_Sep_10_1053,joplin1,2021.2.3,59.96619405799938,
_train_cond.csv,0 0 1 0 1 1 0 1 0 0,4,categoryB,j,,,0,2,2,4,1,2,16,2,,,,,,,,,,,,,,,,,,,f,0,0.4124069999998028,,,,,,,,,,,,,,,,,,,,,,,,,,,,,,,,,,,,888,002,2021_Sep_10_1053,joplin1,2021.2.3,59.96619405799938,
_train_cond.csv,0 0 0 1 0 0 1 0 0 0,2,categoryB,j,,,0,2,2,4,1,3,17,4,,,,,,,,,,,,,,,,,,,f,0,0.4010657920007361,,,,,,,,,,,,,,,,,,,,,,,,,,,,,,,,,,,,888,002,2021_Sep_10_1053,joplin1,2021.2.3,59.96619405799938,
_train_cond.csv,0 0 1 0 0 0 0 1 0 0,2,categoryB,j,,,0,2,2,4,1,4,18,5,,,,,,,,,,,,,,,,,,,j,1,0.24037420800050313,,,,,,,,,,,,,,,,,,,,,,,,,,,,,,,,,,,,888,002,2021_Sep_10_1053,joplin1,2021.2.3,59.96619405799938,
_train_cond.csv,1 1 0 0 0 0 0 0 1 1,4,categoryB,j,,,0,2,2,4,1,5,19,6,,,,,,,,,,,,,,,,,,,j,1,0.6990841249989899,,,,,,,,,,,,,,,,,,,,,,,,,,,,,,,,,,,,888,002,2021_Sep_10_1053,joplin1,2021.2.3,59.96619405799938,
_train_cond.csv,0 1 0 0 0 0 0 0 1 0,2,categoryB,j,,,0,2,2,4,1,6,20,1,,,,,,,,,,,,,,,,,,,j,1,0.3006925419995241,,,,,,,,,,,,,,,,,,,,,,,,,,,,,,,,,,,,888,002,2021_Sep_10_1053,joplin1,2021.2.3,59.96619405799938,
_train_cond.csv,0 1 1 1 1 1 1 1 1 0,8,categoryA,f,,,0,2,2,4,1,7,21,7,,,,,,,,,,,,,,,,,,,f,1,0.34405483400041703,,,,,,,,,,,,,,,,,,,,,,,,,,,,,,,,,,,,888,002,2021_Sep_10_1053,joplin1,2021.2.3,59.96619405799938,
_train_cond.csv,1 1 1 0 1 1 0 1 1 1,8,categoryA,f,,,0,2,2,4,1,8,22,11,,,,,,,,,,,,,,,,,,,j,0,0.49370441700011725,,,,,,,,,,,,,,,,,,,,,,,,,,,,,,,,,,,,888,002,2021_Sep_10_1053,joplin1,2021.2.3,59.96619405799938,
_train_cond.csv,1 0 0 0 0 0 0 0 0 1,2,categoryB,j,,,0,2,2,4,1,9,23,0,,,,,,,,,,,,,,,,,,,j,1,0.2726416250006878,,,,,,,,,,,,,,,,,,,,,,,,,,,,,,,,,,,,888,002,2021_Sep_10_1053,joplin1,2021.2.3,59.96619405799938,
_train_cond.csv,1 1 0 1 0 0 1 0 1 1,6,categoryA,f,,,0,2,2,4,1,10,24,9,,,,,,,,,,,,,,,,,,,j,0,1.3326822079998237,,,,,,,,,,,,,,,,,,,,,,,,,,,,,,,,,,,,888,002,2021_Sep_10_1053,joplin1,2021.2.3,59.96619405799938,
_train_cond.csv,1 0 1 1 1 1 1 1 0 1,8,categoryA,f,,,0,2,2,4,1,11,25,8,,,,,,,,,,,,,,,,,,,f,1,0.6218172919998324,,,,,,,,,,,,,,,,,,,,,,,,,,,,,,,,,,,,888,002,2021_Sep_10_1053,joplin1,2021.2.3,59.96619405799938,
_train_cond.csv,0 0 0 1 1 1 1 0 0 0,4,categoryB,j,,,0,2,2,4,1,12,26,3,,,,,,,,,,,,,,,,,,,f,0,0.3289939169990248,,,,,,,,,,,,,,,,,,,,,,,,,,,,,,,,,,,,888,002,2021_Sep_10_1053,joplin1,2021.2.3,59.96619405799938,
_train_cond.csv,1 1 1 0 0 0 0 1 1 1,6,categoryA,f,,,0,2,2,4,1,13,27,10,,,,,,,,,,,,,,,,,,,f,1,0.8531219579999743,,,,,,,,,,,,,,,,,,,,,,,,,,,,,,,,,,,,888,002,2021_Sep_10_1053,joplin1,2021.2.3,59.96619405799938,
_train_cond.csv,1 0 1 1 1 1 1 1 0 1,8,categoryA,f,,,0,2,2,4,2,0,28,8,,,,,,,,,,,,,,,,,,,j,0,0.30077937500027474,,,,,,,,,,,,,,,,,,,,,,,,,,,,,,,,,,,,888,002,2021_Sep_10_1053,joplin1,2021.2.3,59.96619405799938,
_train_cond.csv,0 1 0 0 0 0 0 0 1 0,2,categoryB,j,,,0,2,2,4,2,1,29,1,,,,,,,,,,,,,,,,,,,j,1,0.2961030419992312,,,,,,,,,,,,,,,,,,,,,,,,,,,,,,,,,,,,888,002,2021_Sep_10_1053,joplin1,2021.2.3,59.96619405799938,
_train_cond.csv,1 1 0 1 1 1 1 0 1 1,8,categoryA,f,,,0,2,2,4,2,2,30,12,,,,,,,,,,,,,,,,,,,j,0,1.365726292000545,,,,,,,,,,,,,,,,,,,,,,,,,,,,,,,,,,,,888,002,2021_Sep_10_1053,joplin1,2021.2.3,59.96619405799938,
_train_cond.csv,1 1 0 1 0 0 1 0 1 1,6,categoryA,f,,,0,2,2,4,2,3,31,9,,,,,,,,,,,,,,,,,,,f,1,0.4981994999998278,,,,,,,,,,,,,,,,,,,,,,,,,,,,,,,,,,,,888,002,2021_Sep_10_1053,joplin1,2021.2.3,59.96619405799938,
_train_cond.csv,0 0 0 1 1 1 1 0 0 0,4,categoryB,j,,,0,2,2,4,2,4,32,3,,,,,,,,,,,,,,,,,,,j,1,0.23537491699971724,,,,,,,,,,,,,,,,,,,,,,,,,,,,,,,,,,,,888,002,2021_Sep_10_1053,joplin1,2021.2.3,59.96619405799938,
_train_cond.csv,0 0 1 0 1 1 0 1 0 0,4,categoryB,j,,,0,2,2,4,2,5,33,2,,,,,,,,,,,,,,,,,,,j,1,0.8096966670000256,,,,,,,,,,,,,,,,,,,,,,,,,,,,,,,,,,,,888,002,2021_Sep_10_1053,joplin1,2021.2.3,59.96619405799938,
_train_cond.csv,1 1 1 0 1 1 0 1 1 1,8,categoryA,f,,,0,2,2,4,2,6,34,11,,,,,,,,,,,,,,,,,,,f,1,0.49760745899948233,,,,,,,,,,,,,,,,,,,,,,,,,,,,,,,,,,,,888,002,2021_Sep_10_1053,joplin1,2021.2.3,59.96619405799938,
_train_cond.csv,1 1 0 0 0 0 0 0 1 1,4,categoryB,j,,,0,2,2,4,2,7,35,6,,,,,,,,,,,,,,,,,,,j,1,0.2608925420008745,,,,,,,,,,,,,,,,,,,,,,,,,,,,,,,,,,,,888,002,2021_Sep_10_1053,joplin1,2021.2.3,59.96619405799938,
_train_cond.csv,0 0 1 1 1 1 1 1 0 0,6,categoryA,f,,,0,2,2,4,2,8,36,13,,,,,,,,,,,,,,,,,,,j,0,0.2757192080007371,,,,,,,,,,,,,,,,,,,,,,,,,,,,,,,,,,,,888,002,2021_Sep_10_1053,joplin1,2021.2.3,59.96619405799938,
_train_cond.csv,1 1 1 0 0 0 0 1 1 1,6,categoryA,f,,,0,2,2,4,2,9,37,10,,,,,,,,,,,,,,,,,,,f,1,0.7072555830000056,,,,,,,,,,,,,,,,,,,,,,,,,,,,,,,,,,,,888,002,2021_Sep_10_1053,joplin1,2021.2.3,59.96619405799938,
_train_cond.csv,1 0 0 0 0 0 0 0 0 1,2,categoryB,j,,,0,2,2,4,2,10,38,0,,,,,,,,,,,,,,,,,,,f,0,1.0942662919987924,,,,,,,,,,,,,,,,,,,,,,,,,,,,,,,,,,,,888,002,2021_Sep_10_1053,joplin1,2021.2.3,59.96619405799938,
_train_cond.csv,0 0 1 0 0 0 0 1 0 0,2,categoryB,j,,,0,2,2,4,2,11,39,5,,,,,,,,,,,,,,,,,,,j,1,0.23327454200079956,,,,,,,,,,,,,,,,,,,,,,,,,,,,,,,,,,,,888,002,2021_Sep_10_1053,joplin1,2021.2.3,59.96619405799938,
_train_cond.csv,0 1 1 1 1 1 1 1 1 0,8,categoryA,f,,,0,2,2,4,2,12,40,7,,,,,,,,,,,,,,,,,,,j,0,0.26192591700055345,,,,,,,,,,,,,,,,,,,,,,,,,,,,,,,,,,,,888,002,2021_Sep_10_1053,joplin1,2021.2.3,59.96619405799938,
_train_cond.csv,0 0 0 1 0 0 1 0 0 0,2,categoryB,j,,,0,2,2,4,2,13,41,4,,,,,,,,,,,,,,,,,,,j,1,0.27391754200107243,,,,,,,,,,,,,,,,,,,,,,,,,,,,,,,,,,,,888,002,2021_Sep_10_1053,joplin1,2021.2.3,59.96619405799938,
_train_cond.csv,,,,,,,0,2,2,4,,,,,,,,,,,,,,,,,,,,,,,,,,space,10.70929679099936,,,,,,,,,,,,,,,,,,,,,,,,,,,,,,,,,,888,002,2021_Sep_10_1053,joplin1,2021.2.3,59.96619405799938,
_train_cond.csv,0 1 1 1 1 1 1 1 1 0,8,categoryA,f,,,0,3,3,5,0,0,0,7,,,,,,,,,,,,,,,,,,,j,0,0.4755058749997261,,,,,,,,,,,,,,,,,,,,,,,,,,,,,,,,,,,,888,002,2021_Sep_10_1053,joplin1,2021.2.3,59.96619405799938,
_train_cond.csv,0 0 1 0 1 1 0 1 0 0,4,categoryB,j,,,0,3,3,5,0,1,1,2,,,,,,,,,,,,,,,,,,,j,1,0.38119429200014565,,,,,,,,,,,,,,,,,,,,,,,,,,,,,,,,,,,,888,002,2021_Sep_10_1053,joplin1,2021.2.3,59.96619405799938,
_train_cond.csv,0 0 1 0 0 0 0 1 0 0,2,categoryB,j,,,0,3,3,5,0,2,2,5,,,,,,,,,,,,,,,,,,,j,1,0.3011633330006589,,,,,,,,,,,,,,,,,,,,,,,,,,,,,,,,,,,,888,002,2021_Sep_10_1053,joplin1,2021.2.3,59.96619405799938,
_train_cond.csv,0 0 0 1 0 0 1 0 0 0,2,categoryB,j,,,0,3,3,5,0,3,3,4,,,,,,,,,,,,,,,,,,,j,1,0.2575488750007935,,,,,,,,,,,,,,,,,,,,,,,,,,,,,,,,,,,,888,002,2021_Sep_10_1053,joplin1,2021.2.3,59.96619405799938,
_train_cond.csv,1 1 1 0 1 1 0 1 1 1,8,categoryA,f,,,0,3,3,5,0,4,4,11,,,,,,,,,,,,,,,,,,,f,1,0.2708295829997951,,,,,,,,,,,,,,,,,,,,,,,,,,,,,,,,,,,,888,002,2021_Sep_10_1053,joplin1,2021.2.3,59.96619405799938,
_train_cond.csv,1 0 0 0 0 0 0 0 0 1,2,categoryB,j,,,0,3,3,5,0,5,5,0,,,,,,,,,,,,,,,,,,,j,1,0.3595227089990658,,,,,,,,,,,,,,,,,,,,,,,,,,,,,,,,,,,,888,002,2021_Sep_10_1053,joplin1,2021.2.3,59.96619405799938,
_train_cond.csv,1 1 0 0 0 0 0 0 1 1,4,categoryB,j,,,0,3,3,5,0,6,6,6,,,,,,,,,,,,,,,,,,,j,1,0.30855054200037557,,,,,,,,,,,,,,,,,,,,,,,,,,,,,,,,,,,,888,002,2021_Sep_10_1053,joplin1,2021.2.3,59.96619405799938,
_train_cond.csv,1 1 1 0 0 0 0 1 1 1,6,categoryA,f,,,0,3,3,5,0,7,7,10,,,,,,,,,,,,,,,,,,,j,0,0.5721799169987207,,,,,,,,,,,,,,,,,,,,,,,,,,,,,,,,,,,,888,002,2021_Sep_10_1053,joplin1,2021.2.3,59.96619405799938,
_train_cond.csv,1 1 0 1 0 0 1 0 1 1,6,categoryA,f,,,0,3,3,5,0,8,8,9,,,,,,,,,,,,,,,,,,,j,0,0.29295633400033694,,,,,,,,,,,,,,,,,,,,,,,,,,,,,,,,,,,,888,002,2021_Sep_10_1053,joplin1,2021.2.3,59.96619405799938,
_train_cond.csv,0 0 1 1 1 1 1 1 0 0,6,categoryA,f,,,0,3,3,5,0,9,9,13,,,,,,,,,,,,,,,,,,,j,0,0.2555793339997763,,,,,,,,,,,,,,,,,,,,,,,,,,,,,,,,,,,,888,002,2021_Sep_10_1053,joplin1,2021.2.3,59.96619405799938,
_train_cond.csv,0 0 0 1 1 1 1 0 0 0,4,categoryB,j,,,0,3,3,5,0,10,10,3,,,,,,,,,,,,,,,,,,,j,1,0.40877137499956007,,,,,,,,,,,,,,,,,,,,,,,,,,,,,,,,,,,,888,002,2021_Sep_10_1053,joplin1,2021.2.3,59.96619405799938,
_train_cond.csv,1 1 0 1 1 1 1 0 1 1,8,categoryA,f,,,0,3,3,5,0,11,11,12,,,,,,,,,,,,,,,,,,,f,1,0.5880847500011441,,,,,,,,,,,,,,,,,,,,,,,,,,,,,,,,,,,,888,002,2021_Sep_10_1053,joplin1,2021.2.3,59.96619405799938,
_train_cond.csv,1 0 1 1 1 1 1 1 0 1,8,categoryA,f,,,0,3,3,5,0,12,12,8,,,,,,,,,,,,,,,,,,,j,0,0.4312373339998885,,,,,,,,,,,,,,,,,,,,,,,,,,,,,,,,,,,,888,002,2021_Sep_10_1053,joplin1,2021.2.3,59.96619405799938,
_train_cond.csv,0 1 0 0 0 0 0 0 1 0,2,categoryB,j,,,0,3,3,5,0,13,13,1,,,,,,,,,,,,,,,,,,,j,1,0.4537906249988737,,,,,,,,,,,,,,,,,,,,,,,,,,,,,,,,,,,,888,002,2021_Sep_10_1053,joplin1,2021.2.3,59.96619405799938,
_train_cond.csv,1 0 0 0 0 0 0 0 0 1,2,categoryB,j,,,0,3,3,5,1,0,14,0,,,,,,,,,,,,,,,,,,,j,1,0.22967945799973677,,,,,,,,,,,,,,,,,,,,,,,,,,,,,,,,,,,,888,002,2021_Sep_10_1053,joplin1,2021.2.3,59.96619405799938,
_train_cond.csv,0 1 0 0 0 0 0 0 1 0,2,categoryB,j,,,0,3,3,5,1,1,15,1,,,,,,,,,,,,,,,,,,,j,1,0.2736463749988616,,,,,,,,,,,,,,,,,,,,,,,,,,,,,,,,,,,,888,002,2021_Sep_10_1053,joplin1,2021.2.3,59.96619405799938,
_train_cond.csv,1 1 1 0 1 1 0 1 1 1,8,categoryA,f,,,0,3,3,5,1,2,16,11,,,,,,,,,,,,,,,,,,,f,1,0.5599206250008137,,,,,,,,,,,,,,,,,,,,,,,,,,,,,,,,,,,,888,002,2021_Sep_10_1053,joplin1,2021.2.3,59.96619405799938,
_train_cond.csv,0 0 0 1 0 0 1 0 0 0,2,categoryB,j,,,0,3,3,5,1,3,17,4,,,,,,,,,,,,,,,,,,,j,1,0.38388537500031816,,,,,,,,,,,,,,,,,,,,,,,,,,,,,,,,,,,,888,002,2021_Sep_10_1053,joplin1,2021.2.3,59.96619405799938,
_train_cond.csv,1 1 0 1 1 1 1 0 1 1,8,categoryA,f,,,0,3,3,5,1,4,18,12,,,,,,,,,,,,,,,,,,,f,1,0.29243391700038046,,,,,,,,,,,,,,,,,,,,,,,,,,,,,,,,,,,,888,002,2021_Sep_10_1053,joplin1,2021.2.3,59.96619405799938,
_train_cond.csv,0 1 1 1 1 1 1 1 1 0,8,categoryA,f,,,0,3,3,5,1,5,19,7,,,,,,,,,,,,,,,,,,,f,1,0.8618887499997072,,,,,,,,,,,,,,,,,,,,,,,,,,,,,,,,,,,,888,002,2021_Sep_10_1053,joplin1,2021.2.3,59.96619405799938,
_train_cond.csv,1 1 0 1 0 0 1 0 1 1,6,categoryA,f,,,0,3,3,5,1,6,20,9,,,,,,,,,,,,,,,,,,,f,1,0.30225229200004833,,,,,,,,,,,,,,,,,,,,,,,,,,,,,,,,,,,,888,002,2021_Sep_10_1053,joplin1,2021.2.3,59.96619405799938,
_train_cond.csv,1 1 0 0 0 0 0 0 1 1,4,categoryB,j,,,0,3,3,5,1,7,21,6,,,,,,,,,,,,,,,,,,,f,0,0.39603983300003165,,,,,,,,,,,,,,,,,,,,,,,,,,,,,,,,,,,,888,002,2021_Sep_10_1053,joplin1,2021.2.3,59.96619405799938,
_train_cond.csv,0 0 1 1 1 1 1 1 0 0,6,categoryA,f,,,0,3,3,5,1,8,22,13,,,,,,,,,,,,,,,,,,,j,0,0.2434095000007801,,,,,,,,,,,,,,,,,,,,,,,,,,,,,,,,,,,,888,002,2021_Sep_10_1053,joplin1,2021.2.3,59.96619405799938,
_train_cond.csv,1 0 1 1 1 1 1 1 0 1,8,categoryA,f,,,0,3,3,5,1,9,23,8,,,,,,,,,,,,,,,,,,,f,1,0.3278076669994334,,,,,,,,,,,,,,,,,,,,,,,,,,,,,,,,,,,,888,002,2021_Sep_10_1053,joplin1,2021.2.3,59.96619405799938,
_train_cond.csv,0 0 1 0 0 0 0 1 0 0,2,categoryB,j,,,0,3,3,5,1,10,24,5,,,,,,,,,,,,,,,,,,,j,1,0.3568679999989399,,,,,,,,,,,,,,,,,,,,,,,,,,,,,,,,,,,,888,002,2021_Sep_10_1053,joplin1,2021.2.3,59.96619405799938,
_train_cond.csv,0 0 0 1 1 1 1 0 0 0,4,categoryB,j,,,0,3,3,5,1,11,25,3,,,,,,,,,,,,,,,,,,,j,1,0.48396991699883074,,,,,,,,,,,,,,,,,,,,,,,,,,,,,,,,,,,,888,002,2021_Sep_10_1053,joplin1,2021.2.3,59.96619405799938,
_train_cond.csv,1 1 1 0 0 0 0 1 1 1,6,categoryA,f,,,0,3,3,5,1,12,26,10,,,,,,,,,,,,,,,,,,,j,0,0.42249158300001,,,,,,,,,,,,,,,,,,,,,,,,,,,,,,,,,,,,888,002,2021_Sep_10_1053,joplin1,2021.2.3,59.96619405799938,
_train_cond.csv,0 0 1 0 1 1 0 1 0 0,4,categoryB,j,,,0,3,3,5,1,13,27,2,,,,,,,,,,,,,,,,,,,j,1,0.429968041000393,,,,,,,,,,,,,,,,,,,,,,,,,,,,,,,,,,,,888,002,2021_Sep_10_1053,joplin1,2021.2.3,59.96619405799938,
_train_cond.csv,1 1 0 0 0 0 0 0 1 1,4,categoryB,j,,,0,3,3,5,2,0,28,6,,,,,,,,,,,,,,,,,,,f,0,0.4948270409986435,,,,,,,,,,,,,,,,,,,,,,,,,,,,,,,,,,,,888,002,2021_Sep_10_1053,joplin1,2021.2.3,59.96619405799938,
_train_cond.csv,1 1 1 0 0 0 0 1 1 1,6,categoryA,f,,,0,3,3,5,2,1,29,10,,,,,,,,,,,,,,,,,,,j,0,0.29060062499956985,,,,,,,,,,,,,,,,,,,,,,,,,,,,,,,,,,,,888,002,2021_Sep_10_1053,joplin1,2021.2.3,59.96619405799938,
_train_cond.csv,0 0 1 1 1 1 1 1 0 0,6,categoryA,f,,,0,3,3,5,2,2,30,13,,,,,,,,,,,,,,,,,,,f,1,0.40533912499995495,,,,,,,,,,,,,,,,,,,,,,,,,,,,,,,,,,,,888,002,2021_Sep_10_1053,joplin1,2021.2.3,59.96619405799938,
_train_cond.csv,1 0 0 0 0 0 0 0 0 1,2,categoryB,j,,,0,3,3,5,2,3,31,0,,,,,,,,,,,,,,,,,,,j,1,0.5348822089999885,,,,,,,,,,,,,,,,,,,,,,,,,,,,,,,,,,,,888,002,2021_Sep_10_1053,joplin1,2021.2.3,59.96619405799938,
_train_cond.csv,0 0 1 0 0 0 0 1 0 0,2,categoryB,j,,,0,3,3,5,2,4,32,5,,,,,,,,,,,,,,,,,,,f,0,0.39248766700075066,,,,,,,,,,,,,,,,,,,,,,,,,,,,,,,,,,,,888,002,2021_Sep_10_1053,joplin1,2021.2.3,59.96619405799938,
_train_cond.csv,1 1 0 1 0 0 1 0 1 1,6,categoryA,f,,,0,3,3,5,2,5,33,9,,,,,,,,,,,,,,,,,,,j,0,0.4991413340012514,,,,,,,,,,,,,,,,,,,,,,,,,,,,,,,,,,,,888,002,2021_Sep_10_1053,joplin1,2021.2.3,59.96619405799938,
_train_cond.csv,1 0 1 1 1 1 1 1 0 1,8,categoryA,f,,,0,3,3,5,2,6,34,8,,,,,,,,,,,,,,,,,,,f,1,0.42018212499897345,,,,,,,,,,,,,,,,,,,,,,,,,,,,,,,,,,,,888,002,2021_Sep_10_1053,joplin1,2021.2.3,59.96619405799938,
_train_cond.csv,0 0 0 1 0 0 1 0 0 0,2,categoryB,j,,,0,3,3,5,2,7,35,4,,,,,,,,,,,,,,,,,,,j,1,0.405504332999044,,,,,,,,,,,,,,,,,,,,,,,,,,,,,,,,,,,,888,002,2021_Sep_10_1053,joplin1,2021.2.3,59.96619405799938,
_train_cond.csv,1 1 0 1 1 1 1 0 1 1,8,categoryA,f,,,0,3,3,5,2,8,36,12,,,,,,,,,,,,,,,,,,,j,0,0.4439776670005813,,,,,,,,,,,,,,,,,,,,,,,,,,,,,,,,,,,,888,002,2021_Sep_10_1053,joplin1,2021.2.3,59.96619405799938,
_train_cond.csv,0 1 0 0 0 0 0 0 1 0,2,categoryB,j,,,0,3,3,5,2,9,37,1,,,,,,,,,,,,,,,,,,,j,1,0.4495759999990696,,,,,,,,,,,,,,,,,,,,,,,,,,,,,,,,,,,,888,002,2021_Sep_10_1053,joplin1,2021.2.3,59.96619405799938,
_train_cond.csv,0 0 1 0 1 1 0 1 0 0,4,categoryB,j,,,0,3,3,5,2,10,38,2,,,,,,,,,,,,,,,,,,,j,1,0.32032483300099557,,,,,,,,,,,,,,,,,,,,,,,,,,,,,,,,,,,,888,002,2021_Sep_10_1053,joplin1,2021.2.3,59.96619405799938,
_train_cond.csv,0 1 1 1 1 1 1 1 1 0,8,categoryA,f,,,0,3,3,5,2,11,39,7,,,,,,,,,,,,,,,,,,,f,1,0.3070501670008525,,,,,,,,,,,,,,,,,,,,,,,,,,,,,,,,,,,,888,002,2021_Sep_10_1053,joplin1,2021.2.3,59.96619405799938,
_train_cond.csv,1 1 1 0 1 1 0 1 1 1,8,categoryA,f,,,0,3,3,5,2,12,40,11,,,,,,,,,,,,,,,,,,,f,1,0.27062808299888275,,,,,,,,,,,,,,,,,,,,,,,,,,,,,,,,,,,,888,002,2021_Sep_10_1053,joplin1,2021.2.3,59.96619405799938,
_train_cond.csv,0 0 0 1 1 1 1 0 0 0,4,categoryB,j,,,0,3,3,5,2,13,41,3,,,,,,,,,,,,,,,,,,,j,1,0.26399162499910744,,,,,,,,,,,,,,,,,,,,,,,,,,,,,,,,,,,,888,002,2021_Sep_10_1053,joplin1,2021.2.3,59.96619405799938,
_train_cond.csv,,,,,,,0,3,3,5,,,,,,,,,,,,,,,,,,,,,,,,,,space,3.46546458299963,,,,,,,,,,,,,,,,,,,,,,,,,,,,,,,,,,888,002,2021_Sep_10_1053,joplin1,2021.2.3,59.96619405799938,
_train_cond.csv,0 0 1 1 1 1 1 1 0 0,6,categoryA,f,,,0,4,4,6,0,0,0,13,,,,,,,,,,,,,,,,,,,j,0,0.9542078329996002,,,,,,,,,,,,,,,,,,,,,,,,,,,,,,,,,,,,888,002,2021_Sep_10_1053,joplin1,2021.2.3,59.96619405799938,
_train_cond.csv,0 1 0 0 0 0 0 0 1 0,2,categoryB,j,,,0,4,4,6,0,1,1,1,,,,,,,,,,,,,,,,,,,j,1,0.12335408399849257,,,,,,,,,,,,,,,,,,,,,,,,,,,,,,,,,,,,888,002,2021_Sep_10_1053,joplin1,2021.2.3,59.96619405799938,
_train_cond.csv,1 0 1 1 1 1 1 1 0 1,8,categoryA,f,,,0,4,4,6,0,2,2,8,,,,,,,,,,,,,,,,,,,f,1,0.08179570799984504,,,,,,,,,,,,,,,,,,,,,,,,,,,,,,,,,,,,888,002,2021_Sep_10_1053,joplin1,2021.2.3,59.96619405799938,
_train_cond.csv,0 0 1 0 0 0 0 1 0 0,2,categoryB,j,,,0,4,4,6,0,3,3,5,,,,,,,,,,,,,,,,,,,j,1,0.3222928329996648,,,,,,,,,,,,,,,,,,,,,,,,,,,,,,,,,,,,888,002,2021_Sep_10_1053,joplin1,2021.2.3,59.96619405799938,
_train_cond.csv,1 1 0 1 0 0 1 0 1 1,6,categoryA,f,,,0,4,4,6,0,4,4,9,,,,,,,,,,,,,,,,,,,j,0,0.2638612499995361,,,,,,,,,,,,,,,,,,,,,,,,,,,,,,,,,,,,888,002,2021_Sep_10_1053,joplin1,2021.2.3,59.96619405799938,
_train_cond.csv,1 0 0 0 0 0 0 0 0 1,2,categoryB,j,,,0,4,4,6,0,5,5,0,,,,,,,,,,,,,,,,,,,f,0,0.43414949999896635,,,,,,,,,,,,,,,,,,,,,,,,,,,,,,,,,,,,888,002,2021_Sep_10_1053,joplin1,2021.2.3,59.96619405799938,
_train_cond.csv,0 1 1 1 1 1 1 1 1 0,8,categoryA,f,,,0,4,4,6,0,6,6,7,,,,,,,,,,,,,,,,,,,j,0,0.3190417500009062,,,,,,,,,,,,,,,,,,,,,,,,,,,,,,,,,,,,888,002,2021_Sep_10_1053,joplin1,2021.2.3,59.96619405799938,
_train_cond.csv,0 0 0 1 0 0 1 0 0 0,2,categoryB,j,,,0,4,4,6,0,7,7,4,,,,,,,,,,,,,,,,,,,j,1,0.2641120839998621,,,,,,,,,,,,,,,,,,,,,,,,,,,,,,,,,,,,888,002,2021_Sep_10_1053,joplin1,2021.2.3,59.96619405799938,
_train_cond.csv,1 1 0 1 1 1 1 0 1 1,8,categoryA,f,,,0,4,4,6,0,8,8,12,,,,,,,,,,,,,,,,,,,f,1,0.29333908399894426,,,,,,,,,,,,,,,,,,,,,,,,,,,,,,,,,,,,888,002,2021_Sep_10_1053,joplin1,2021.2.3,59.96619405799938,
_train_cond.csv,1 1 0 0 0 0 0 0 1 1,4,categoryB,j,,,0,4,4,6,0,9,9,6,,,,,,,,,,,,,,,,,,,f,0,0.2603536250007892,,,,,,,,,,,,,,,,,,,,,,,,,,,,,,,,,,,,888,002,2021_Sep_10_1053,joplin1,2021.2.3,59.96619405799938,
_train_cond.csv,0 0 1 0 1 1 0 1 0 0,4,categoryB,j,,,0,4,4,6,0,10,10,2,,,,,,,,,,,,,,,,,,,f,0,0.5227169159988989,,,,,,,,,,,,,,,,,,,,,,,,,,,,,,,,,,,,888,002,2021_Sep_10_1053,joplin1,2021.2.3,59.96619405799938,
_train_cond.csv,0 0 0 1 1 1 1 0 0 0,4,categoryB,j,,,0,4,4,6,0,11,11,3,,,,,,,,,,,,,,,,,,,j,1,0.3347491660006199,,,,,,,,,,,,,,,,,,,,,,,,,,,,,,,,,,,,888,002,2021_Sep_10_1053,joplin1,2021.2.3,59.96619405799938,
_train_cond.csv,1 1 1 0 1 1 0 1 1 1,8,categoryA,f,,,0,4,4,6,0,12,12,11,,,,,,,,,,,,,,,,,,,f,1,0.28674408299957577,,,,,,,,,,,,,,,,,,,,,,,,,,,,,,,,,,,,888,002,2021_Sep_10_1053,joplin1,2021.2.3,59.96619405799938,
_train_cond.csv,1 1 1 0 0 0 0 1 1 1,6,categoryA,f,,,0,4,4,6,0,13,13,10,,,,,,,,,,,,,,,,,,,j,0,0.5975942090008175,,,,,,,,,,,,,,,,,,,,,,,,,,,,,,,,,,,,888,002,2021_Sep_10_1053,joplin1,2021.2.3,59.96619405799938,
_train_cond.csv,1 0 1 1 1 1 1 1 0 1,8,categoryA,f,,,0,4,4,6,1,0,14,8,,,,,,,,,,,,,,,,,,,f,1,0.043996833001074265,,,,,,,,,,,,,,,,,,,,,,,,,,,,,,,,,,,,888,002,2021_Sep_10_1053,joplin1,2021.2.3,59.96619405799938,
_train_cond.csv,1 1 0 1 0 0 1 0 1 1,6,categoryA,f,,,0,4,4,6,1,1,15,9,,,,,,,,,,,,,,,,,,,j,0,0.2464392499987298,,,,,,,,,,,,,,,,,,,,,,,,,,,,,,,,,,,,888,002,2021_Sep_10_1053,joplin1,2021.2.3,59.96619405799938,
_train_cond.csv,1 1 1 0 1 1 0 1 1 1,8,categoryA,f,,,0,4,4,6,1,2,16,11,,,,,,,,,,,,,,,,,,,f,1,0.20793920799951593,,,,,,,,,,,,,,,,,,,,,,,,,,,,,,,,,,,,888,002,2021_Sep_10_1053,joplin1,2021.2.3,59.96619405799938,
_train_cond.csv,0 0 1 0 1 1 0 1 0 0,4,categoryB,j,,,0,4,4,6,1,3,17,2,,,,,,,,,,,,,,,,,,,j,1,0.23846241700084647,,,,,,,,,,,,,,,,,,,,,,,,,,,,,,,,,,,,888,002,2021_Sep_10_1053,joplin1,2021.2.3,59.96619405799938,
_train_cond.csv,0 1 0 0 0 0 0 0 1 0,2,categoryB,j,,,0,4,4,6,1,4,18,1,,,,,,,,,,,,,,,,,,,j,1,0.09824325000045064,,,,,,,,,,,,,,,,,,,,,,,,,,,,,,,,,,,,888,002,2021_Sep_10_1053,joplin1,2021.2.3,59.96619405799938,
_train_cond.csv,0 1 1 1 1 1 1 1 1 0,8,categoryA,f,,,0,4,4,6,1,5,19,7,,,,,,,,,,,,,,,,,,,j,0,0.27593229099875316,,,,,,,,,,,,,,,,,,,,,,,,,,,,,,,,,,,,888,002,2021_Sep_10_1053,joplin1,2021.2.3,59.96619405799938,
_train_cond.csv,1 1 1 0 0 0 0 1 1 1,6,categoryA,f,,,0,4,4,6,1,6,20,10,,,,,,,,,,,,,,,,,,,f,1,0.9540854999995645,,,,,,,,,,,,,,,,,,,,,,,,,,,,,,,,,,,,888,002,2021_Sep_10_1053,joplin1,2021.2.3,59.96619405799938,
_train_cond.csv,0 0 0 1 0 0 1 0 0 0,2,categoryB,j,,,0,4,4,6,1,7,21,4,,,,,,,,,,,,,,,,,,,j,1,0.29577954199885426,,,,,,,,,,,,,,,,,,,,,,,,,,,,,,,,,,,,888,002,2021_Sep_10_1053,joplin1,2021.2.3,59.96619405799938,
_train_cond.csv,1 0 0 0 0 0 0 0 0 1,2,categoryB,j,,,0,4,4,6,1,8,22,0,,,,,,,,,,,,,,,,,,,f,0,0.7472364169989305,,,,,,,,,,,,,,,,,,,,,,,,,,,,,,,,,,,,888,002,2021_Sep_10_1053,joplin1,2021.2.3,59.96619405799938,
_train_cond.csv,1 1 0 0 0 0 0 0 1 1,4,categoryB,j,,,0,4,4,6,1,9,23,6,,,,,,,,,,,,,,,,,,,j,1,0.3821724160006852,,,,,,,,,,,,,,,,,,,,,,,,,,,,,,,,,,,,888,002,2021_Sep_10_1053,joplin1,2021.2.3,59.96619405799938,
_train_cond.csv,0 0 1 0 0 0 0 1 0 0,2,categoryB,j,,,0,4,4,6,1,10,24,5,,,,,,,,,,,,,,,,,,,f,0,0.7191482500002166,,,,,,,,,,,,,,,,,,,,,,,,,,,,,,,,,,,,888,002,2021_Sep_10_1053,joplin1,2021.2.3,59.96619405799938,
_train_cond.csv,1 1 0 1 1 1 1 0 1 1,8,categoryA,f,,,0,4,4,6,1,11,25,12,,,,,,,,,,,,,,,,,,,f,1,0.8951472090011521,,,,,,,,,,,,,,,,,,,,,,,,,,,,,,,,,,,,888,002,2021_Sep_10_1053,joplin1,2021.2.3,59.96619405799938,
_train_cond.csv,0 0 0 1 1 1 1 0 0 0,4,categoryB,j,,,0,4,4,6,1,12,26,3,,,,,,,,,,,,,,,,,,,j,1,0.3980773329985823,,,,,,,,,,,,,,,,,,,,,,,,,,,,,,,,,,,,888,002,2021_Sep_10_1053,joplin1,2021.2.3,59.96619405799938,
_train_cond.csv,0 0 1 1 1 1 1 1 0 0,6,categoryA,f,,,0,4,4,6,1,13,27,13,,,,,,,,,,,,,,,,,,,j,0,0.43081304100087436,,,,,,,,,,,,,,,,,,,,,,,,,,,,,,,,,,,,888,002,2021_Sep_10_1053,joplin1,2021.2.3,59.96619405799938,
_train_cond.csv,0 0 1 0 1 1 0 1 0 0,4,categoryB,j,,,0,4,4,6,2,0,28,2,,,,,,,,,,,,,,,,,,,f,0,0.11225795800055494,,,,,,,,,,,,,,,,,,,,,,,,,,,,,,,,,,,,888,002,2021_Sep_10_1053,joplin1,2021.2.3,59.96619405799938,
_train_cond.csv,1 1 0 1 0 0 1 0 1 1,6,categoryA,f,,,0,4,4,6,2,1,29,9,,,,,,,,,,,,,,,,,,,f,1,0.28382554199924925,,,,,,,,,,,,,,,,,,,,,,,,,,,,,,,,,,,,888,002,2021_Sep_10_1053,joplin1,2021.2.3,59.96619405799938,
_train_cond.csv,1 1 1 0 1 1 0 1 1 1,8,categoryA,f,,,0,4,4,6,2,2,30,11,,,,,,,,,,,,,,,,,,,j,0,0.47698104200026137,,,,,,,,,,,,,,,,,,,,,,,,,,,,,,,,,,,,888,002,2021_Sep_10_1053,joplin1,2021.2.3,59.96619405799938,
_train_cond.csv,0 0 0 1 1 1 1 0 0 0,4,categoryB,j,,,0,4,4,6,2,3,31,3,,,,,,,,,,,,,,,,,,,f,0,1.8388289169997734,,,,,,,,,,,,,,,,,,,,,,,,,,,,,,,,,,,,888,002,2021_Sep_10_1053,joplin1,2021.2.3,59.96619405799938,
_train_cond.csv,1 1 1 0 0 0 0 1 1 1,6,categoryA,f,,,0,4,4,6,2,4,32,10,,,,,,,,,,,,,,,,,,,f,1,0.3454409999994823,,,,,,,,,,,,,,,,,,,,,,,,,,,,,,,,,,,,888,002,2021_Sep_10_1053,joplin1,2021.2.3,59.96619405799938,
_train_cond.csv,0 0 0 1 0 0 1 0 0 0,2,categoryB,j,,,0,4,4,6,2,5,33,4,,,,,,,,,,,,,,,,,,,j,1,0.2201675840005919,,,,,,,,,,,,,,,,,,,,,,,,,,,,,,,,,,,,888,002,2021_Sep_10_1053,joplin1,2021.2.3,59.96619405799938,
_train_cond.csv,0 0 1 0 0 0 0 1 0 0,2,categoryB,j,,,0,4,4,6,2,6,34,5,,,,,,,,,,,,,,,,,,,j,1,1.0121902499995485,,,,,,,,,,,,,,,,,,,,,,,,,,,,,,,,,,,,888,002,2021_Sep_10_1053,joplin1,2021.2.3,59.96619405799938,
_train_cond.csv,1 1 0 0 0 0 0 0 1 1,4,categoryB,j,,,0,4,4,6,2,7,35,6,,,,,,,,,,,,,,,,,,,f,0,0.8279806670016114,,,,,,,,,,,,,,,,,,,,,,,,,,,,,,,,,,,,888,002,2021_Sep_10_1053,joplin1,2021.2.3,59.96619405799938,
_train_cond.csv,0 1 1 1 1 1 1 1 1 0,8,categoryA,f,,,0,4,4,6,2,8,36,7,,,,,,,,,,,,,,,,,,,f,1,0.3581822079995618,,,,,,,,,,,,,,,,,,,,,,,,,,,,,,,,,,,,888,002,2021_Sep_10_1053,joplin1,2021.2.3,59.96619405799938,
_train_cond.csv,0 0 1 1 1 1 1 1 0 0,6,categoryA,f,,,0,4,4,6,2,9,37,13,,,,,,,,,,,,,,,,,,,j,0,0.23551366600077017,,,,,,,,,,,,,,,,,,,,,,,,,,,,,,,,,,,,888,002,2021_Sep_10_1053,joplin1,2021.2.3,59.96619405799938,
_train_cond.csv,1 0 0 0 0 0 0 0 0 1,2,categoryB,j,,,0,4,4,6,2,10,38,0,,,,,,,,,,,,,,,,,,,f,0,0.3603785830000561,,,,,,,,,,,,,,,,,,,,,,,,,,,,,,,,,,,,888,002,2021_Sep_10_1053,joplin1,2021.2.3,59.96619405799938,
_train_cond.csv,1 0 1 1 1 1 1 1 0 1,8,categoryA,f,,,0,4,4,6,2,11,39,8,,,,,,,,,,,,,,,,,,,f,1,0.28685870799927216,,,,,,,,,,,,,,,,,,,,,,,,,,,,,,,,,,,,888,002,2021_Sep_10_1053,joplin1,2021.2.3,59.96619405799938,
_train_cond.csv,1 1 0 1 1 1 1 0 1 1,8,categoryA,f,,,0,4,4,6,2,12,40,12,,,,,,,,,,,,,,,,,,,f,1,0.2856484170006297,,,,,,,,,,,,,,,,,,,,,,,,,,,,,,,,,,,,888,002,2021_Sep_10_1053,joplin1,2021.2.3,59.96619405799938,
_train_cond.csv,0 1 0 0 0 0 0 0 1 0,2,categoryB,j,,,0,4,4,6,2,13,41,1,,,,,,,,,,,,,,,,,,,j,1,0.06122970800061012,,,,,,,,,,,,,,,,,,,,,,,,,,,,,,,,,,,,888,002,2021_Sep_10_1053,joplin1,2021.2.3,59.96619405799938,
_train_cond.csv,,,,,,,0,4,4,6,,,,,,,,,,,,,,,,,,,,,,,,,,space,1.5599666250000155,,,,,,,,,,,,,,,,,,,,,,,,,,,,,,,,,,888,002,2021_Sep_10_1053,joplin1,2021.2.3,59.96619405799938,
_train_cond.csv,1 1 1 0 0 0 0 1 1 1,6,categoryA,f,,,0,5,5,1,0,0,0,10,,,,,,,,,,,,,,,,,,,f,1,0.4791950420003559,,,,,,,,,,,,,,,,,,,,,,,,,,,,,,,,,,,,888,002,2021_Sep_10_1053,joplin1,2021.2.3,59.96619405799938,
_train_cond.csv,1 0 0 0 0 0 0 0 0 1,2,categoryB,j,,,0,5,5,1,0,1,1,0,,,,,,,,,,,,,,,,,,,j,1,0.2662078749999637,,,,,,,,,,,,,,,,,,,,,,,,,,,,,,,,,,,,888,002,2021_Sep_10_1053,joplin1,2021.2.3,59.96619405799938,
_train_cond.csv,0 0 0 1 1 1 1 0 0 0,4,categoryB,j,,,0,5,5,1,0,2,2,3,,,,,,,,,,,,,,,,,,,j,1,0.2576507909998327,,,,,,,,,,,,,,,,,,,,,,,,,,,,,,,,,,,,888,002,2021_Sep_10_1053,joplin1,2021.2.3,59.96619405799938,
_train_cond.csv,0 0 0 1 0 0 1 0 0 0,2,categoryB,j,,,0,5,5,1,0,3,3,4,,,,,,,,,,,,,,,,,,,j,1,0.3301646249983605,,,,,,,,,,,,,,,,,,,,,,,,,,,,,,,,,,,,888,002,2021_Sep_10_1053,joplin1,2021.2.3,59.96619405799938,
_train_cond.csv,0 1 0 0 0 0 0 0 1 0,2,categoryB,j,,,0,5,5,1,0,4,4,1,,,,,,,,,,,,,,,,,,,j,1,0.17539612499967916,,,,,,,,,,,,,,,,,,,,,,,,,,,,,,,,,,,,888,002,2021_Sep_10_1053,joplin1,2021.2.3,59.96619405799938,
_train_cond.csv,0 0 1 0 1 1 0 1 0 0,4,categoryB,j,,,0,5,5,1,0,5,5,2,,,,,,,,,,,,,,,,,,,f,0,0.20238545800020802,,,,,,,,,,,,,,,,,,,,,,,,,,,,,,,,,,,,888,002,2021_Sep_10_1053,joplin1,2021.2.3,59.96619405799938,
_train_cond.csv,1 1 0 1 0 0 1 0 1 1,6,categoryA,f,,,0,5,5,1,0,6,6,9,,,,,,,,,,,,,,,,,,,j,0,0.18098474999897007,,,,,,,,,,,,,,,,,,,,,,,,,,,,,,,,,,,,888,002,2021_Sep_10_1053,joplin1,2021.2.3,59.96619405799938,
_train_cond.csv,1 1 0 0 0 0 0 0 1 1,4,categoryB,j,,,0,5,5,1,0,7,7,6,,,,,,,,,,,,,,,,,,,f,0,0.34872283400000015,,,,,,,,,,,,,,,,,,,,,,,,,,,,,,,,,,,,888,002,2021_Sep_10_1053,joplin1,2021.2.3,59.96619405799938,
_train_cond.csv,0 0 1 1 1 1 1 1 0 0,6,categoryA,f,,,0,5,5,1,0,8,8,13,,,,,,,,,,,,,,,,,,,f,1,0.7357985830003599,,,,,,,,,,,,,,,,,,,,,,,,,,,,,,,,,,,,888,002,2021_Sep_10_1053,joplin1,2021.2.3,59.96619405799938,
_train_cond.csv,1 1 1 0 1 1 0 1 1 1,8,categoryA,f,,,0,5,5,1,0,9,9,11,,,,,,,,,,,,,,,,,,,f,1,0.2710716669989779,,,,,,,,,,,,,,,,,,,,,,,,,,,,,,,,,,,,888,002,2021_Sep_10_1053,joplin1,2021.2.3,59.96619405799938,
_train_cond.csv,1 1 0 1 1 1 1 0 1 1,8,categoryA,f,,,0,5,5,1,0,10,10,12,,,,,,,,,,,,,,,,,,,j,0,0.1882673749987589,,,,,,,,,,,,,,,,,,,,,,,,,,,,,,,,,,,,888,002,2021_Sep_10_1053,joplin1,2021.2.3,59.96619405799938,
_train_cond.csv,0 0 1 0 0 0 0 1 0 0,2,categoryB,j,,,0,5,5,1,0,11,11,5,,,,,,,,,,,,,,,,,,,f,0,0.8025883749996865,,,,,,,,,,,,,,,,,,,,,,,,,,,,,,,,,,,,888,002,2021_Sep_10_1053,joplin1,2021.2.3,59.96619405799938,
_train_cond.csv,1 0 1 1 1 1 1 1 0 1,8,categoryA,f,,,0,5,5,1,0,12,12,8,,,,,,,,,,,,,,,,,,,f,1,0.15200083399940922,,,,,,,,,,,,,,,,,,,,,,,,,,,,,,,,,,,,888,002,2021_Sep_10_1053,joplin1,2021.2.3,59.96619405799938,
_train_cond.csv,0 1 1 1 1 1 1 1 1 0,8,categoryA,f,,,0,5,5,1,0,13,13,7,,,,,,,,,,,,,,,,,,,f,1,0.3351228329993319,,,,,,,,,,,,,,,,,,,,,,,,,,,,,,,,,,,,888,002,2021_Sep_10_1053,joplin1,2021.2.3,59.96619405799938,
_train_cond.csv,0 1 1 1 1 1 1 1 1 0,8,categoryA,f,,,0,5,5,1,1,0,14,7,,,,,,,,,,,,,,,,,,,f,1,0.3766584580007475,,,,,,,,,,,,,,,,,,,,,,,,,,,,,,,,,,,,888,002,2021_Sep_10_1053,joplin1,2021.2.3,59.96619405799938,
_train_cond.csv,1 1 0 1 0 0 1 0 1 1,6,categoryA,f,,,0,5,5,1,1,1,15,9,,,,,,,,,,,,,,,,,,,j,0,0.19502850000026228,,,,,,,,,,,,,,,,,,,,,,,,,,,,,,,,,,,,888,002,2021_Sep_10_1053,joplin1,2021.2.3,59.96619405799938,
_train_cond.csv,1 0 1 1 1 1 1 1 0 1,8,categoryA,f,,,0,5,5,1,1,2,16,8,,,,,,,,,,,,,,,,,,,f,1,0.0607573749985022,,,,,,,,,,,,,,,,,,,,,,,,,,,,,,,,,,,,888,002,2021_Sep_10_1053,joplin1,2021.2.3,59.96619405799938,
_train_cond.csv,0 0 1 1 1 1 1 1 0 0,6,categoryA,f,,,0,5,5,1,1,3,17,13,,,,,,,,,,,,,,,,,,,f,1,0.6418773750010587,,,,,,,,,,,,,,,,,,,,,,,,,,,,,,,,,,,,888,002,2021_Sep_10_1053,joplin1,2021.2.3,59.96619405799938,
_train_cond.csv,1 1 0 1 1 1 1 0 1 1,8,categoryA,f,,,0,5,5,1,1,4,18,12,,,,,,,,,,,,,,,,,,,j,0,0.32778370900086884,,,,,,,,,,,,,,,,,,,,,,,,,,,,,,,,,,,,888,002,2021_Sep_10_1053,joplin1,2021.2.3,59.96619405799938,
_train_cond.csv,1 1 1 0 0 0 0 1 1 1,6,categoryA,f,,,0,5,5,1,1,5,19,10,,,,,,,,,,,,,,,,,,,f,1,0.4888894999985496,,,,,,,,,,,,,,,,,,,,,,,,,,,,,,,,,,,,888,002,2021_Sep_10_1053,joplin1,2021.2.3,59.96619405799938,
_train_cond.csv,0 0 1 0 1 1 0 1 0 0,4,categoryB,j,,,0,5,5,1,1,6,20,2,,,,,,,,,,,,,,,,,,,f,0,0.7328881670000555,,,,,,,,,,,,,,,,,,,,,,,,,,,,,,,,,,,,888,002,2021_Sep_10_1053,joplin1,2021.2.3,59.96619405799938,
_train_cond.csv,0 0 0 1 0 0 1 0 0 0,2,categoryB,j,,,0,5,5,1,1,7,21,4,,,,,,,,,,,,,,,,,,,j,1,0.3328630409996549,,,,,,,,,,,,,,,,,,,,,,,,,,,,,,,,,,,,888,002,2021_Sep_10_1053,joplin1,2021.2.3,59.96619405799938,
_train_cond.csv,1 0 0 0 0 0 0 0 0 1,2,categoryB,j,,,0,5,5,1,1,8,22,0,,,,,,,,,,,,,,,,,,,j,1,0.7364319580010488,,,,,,,,,,,,,,,,,,,,,,,,,,,,,,,,,,,,888,002,2021_Sep_10_1053,joplin1,2021.2.3,59.96619405799938,
_train_cond.csv,1 1 1 0 1 1 0 1 1 1,8,categoryA,f,,,0,5,5,1,1,9,23,11,,,,,,,,,,,,,,,,,,,f,1,1.1120657499996014,,,,,,,,,,,,,,,,,,,,,,,,,,,,,,,,,,,,888,002,2021_Sep_10_1053,joplin1,2021.2.3,59.96619405799938,
_train_cond.csv,0 0 0 1 1 1 1 0 0 0,4,categoryB,j,,,0,5,5,1,1,10,24,3,,,,,,,,,,,,,,,,,,,j,1,0.5338887920006528,,,,,,,,,,,,,,,,,,,,,,,,,,,,,,,,,,,,888,002,2021_Sep_10_1053,joplin1,2021.2.3,59.96619405799938,
_train_cond.csv,1 1 0 0 0 0 0 0 1 1,4,categoryB,j,,,0,5,5,1,1,11,25,6,,,,,,,,,,,,,,,,,,,j,1,0.5875864580011694,,,,,,,,,,,,,,,,,,,,,,,,,,,,,,,,,,,,888,002,2021_Sep_10_1053,joplin1,2021.2.3,59.96619405799938,
_train_cond.csv,0 0 1 0 0 0 0 1 0 0,2,categoryB,j,,,0,5,5,1,1,12,26,5,,,,,,,,,,,,,,,,,,,f,0,0.5902482500005135,,,,,,,,,,,,,,,,,,,,,,,,,,,,,,,,,,,,888,002,2021_Sep_10_1053,joplin1,2021.2.3,59.96619405799938,
_train_cond.csv,0 1 0 0 0 0 0 0 1 0,2,categoryB,j,,,0,5,5,1,1,13,27,1,,,,,,,,,,,,,,,,,,,j,1,0.26194808299987926,,,,,,,,,,,,,,,,,,,,,,,,,,,,,,,,,,,,888,002,2021_Sep_10_1053,joplin1,2021.2.3,59.96619405799938,
_train_cond.csv,0 0 0 1 0 0 1 0 0 0,2,categoryB,j,,,0,5,5,1,2,0,28,4,,,,,,,,,,,,,,,,,,,j,1,0.30641362499954994,,,,,,,,,,,,,,,,,,,,,,,,,,,,,,,,,,,,888,002,2021_Sep_10_1053,joplin1,2021.2.3,59.96619405799938,
_train_cond.csv,0 1 0 0 0 0 0 0 1 0,2,categoryB,j,,,0,5,5,1,2,1,29,1,,,,,,,,,,,,,,,,,,,j,1,0.30590933299936296,,,,,,,,,,,,,,,,,,,,,,,,,,,,,,,,,,,,888,002,2021_Sep_10_1053,joplin1,2021.2.3,59.96619405799938,
_train_cond.csv,1 0 1 1 1 1 1 1 0 1,8,categoryA,f,,,0,5,5,1,2,2,30,8,,,,,,,,,,,,,,,,,,,f,1,0.16853891699975065,,,,,,,,,,,,,,,,,,,,,,,,,,,,,,,,,,,,888,002,2021_Sep_10_1053,joplin1,2021.2.3,59.96619405799938,
_train_cond.csv,1 1 0 0 0 0 0 0 1 1,4,categoryB,j,,,0,5,5,1,2,3,31,6,,,,,,,,,,,,,,,,,,,j,1,0.23888654200163728,,,,,,,,,,,,,,,,,,,,,,,,,,,,,,,,,,,,888,002,2021_Sep_10_1053,joplin1,2021.2.3,59.96619405799938,
_train_cond.csv,1 1 1 0 1 1 0 1 1 1,8,categoryA,f,,,0,5,5,1,2,4,32,11,,,,,,,,,,,,,,,,,,,f,1,0.2791374580010597,,,,,,,,,,,,,,,,,,,,,,,,,,,,,,,,,,,,888,002,2021_Sep_10_1053,joplin1,2021.2.3,59.96619405799938,
_train_cond.csv,1 1 1 0 0 0 0 1 1 1,6,categoryA,f,,,0,5,5,1,2,5,33,10,,,,,,,,,,,,,,,,,,,j,0,0.20655620800062025,,,,,,,,,,,,,,,,,,,,,,,,,,,,,,,,,,,,888,002,2021_Sep_10_1053,joplin1,2021.2.3,59.96619405799938,
_train_cond.csv,1 0 0 0 0 0 0 0 0 1,2,categoryB,j,,,0,5,5,1,2,6,34,0,,,,,,,,,,,,,,,,,,,j,1,0.2782508330001292,,,,,,,,,,,,,,,,,,,,,,,,,,,,,,,,,,,,888,002,2021_Sep_10_1053,joplin1,2021.2.3,59.96619405799938,
_train_cond.csv,1 1 0 1 0 0 1 0 1 1,6,categoryA,f,,,0,5,5,1,2,7,35,9,,,,,,,,,,,,,,,,,,,j,0,0.7261230000003707,,,,,,,,,,,,,,,,,,,,,,,,,,,,,,,,,,,,888,002,2021_Sep_10_1053,joplin1,2021.2.3,59.96619405799938,
_train_cond.csv,0 0 1 0 1 1 0 1 0 0,4,categoryB,j,,,0,5,5,1,2,8,36,2,,,,,,,,,,,,,,,,,,,j,1,0.24841320799896494,,,,,,,,,,,,,,,,,,,,,,,,,,,,,,,,,,,,888,002,2021_Sep_10_1053,joplin1,2021.2.3,59.96619405799938,
_train_cond.csv,0 0 1 1 1 1 1 1 0 0,6,categoryA,f,,,0,5,5,1,2,9,37,13,,,,,,,,,,,,,,,,,,,j,0,0.3131324999994831,,,,,,,,,,,,,,,,,,,,,,,,,,,,,,,,,,,,888,002,2021_Sep_10_1053,joplin1,2021.2.3,59.96619405799938,
_train_cond.csv,1 1 0 1 1 1 1 0 1 1,8,categoryA,f,,,0,5,5,1,2,10,38,12,,,,,,,,,,,,,,,,,,,j,0,0.2840914589996828,,,,,,,,,,,,,,,,,,,,,,,,,,,,,,,,,,,,888,002,2021_Sep_10_1053,joplin1,2021.2.3,59.96619405799938,
_train_cond.csv,0 0 0 1 1 1 1 0 0 0,4,categoryB,j,,,0,5,5,1,2,11,39,3,,,,,,,,,,,,,,,,,,,j,1,0.2087782500002504,,,,,,,,,,,,,,,,,,,,,,,,,,,,,,,,,,,,888,002,2021_Sep_10_1053,joplin1,2021.2.3,59.96619405799938,
_train_cond.csv,0 1 1 1 1 1 1 1 1 0,8,categoryA,f,,,0,5,5,1,2,12,40,7,,,,,,,,,,,,,,,,,,,f,1,0.25028479200045695,,,,,,,,,,,,,,,,,,,,,,,,,,,,,,,,,,,,888,002,2021_Sep_10_1053,joplin1,2021.2.3,59.96619405799938,
_train_cond.csv,0 0 1 0 0 0 0 1 0 0,2,categoryB,j,,,0,5,5,1,2,13,41,5,,,,,,,,,,,,,,,,,,,j,1,0.058669916999861016,,,,,,,,,,,,,,,,,,,,,,,,,,,,,,,,,,,,888,002,2021_Sep_10_1053,joplin1,2021.2.3,59.96619405799938,
_train_cond.csv,,,,,,,0,5,5,1,,,,,,,,,,,,,,,,,,,,,,,,,,space,1.3199092079994443,,,,,,,,,,,,,,,,,,,,,,,,,,,,,,,,,,888,002,2021_Sep_10_1053,joplin1,2021.2.3,59.96619405799938,
_train_cond.csv,0 0 1 0 0 0 0 1 0 0,2,categoryB,j,,,0,6,6,2,0,0,0,5,,,,,,,,,,,,,,,,,,,f,0,0.315872291001142,,,,,,,,,,,,,,,,,,,,,,,,,,,,,,,,,,,,888,002,2021_Sep_10_1053,joplin1,2021.2.3,59.96619405799938,
_train_cond.csv,0 1 1 1 1 1 1 1 1 0,8,categoryA,f,,,0,6,6,2,0,1,1,7,,,,,,,,,,,,,,,,,,,f,1,0.2282772920007119,,,,,,,,,,,,,,,,,,,,,,,,,,,,,,,,,,,,888,002,2021_Sep_10_1053,joplin1,2021.2.3,59.96619405799938,
_train_cond.csv,0 0 1 1 1 1 1 1 0 0,6,categoryA,f,,,0,6,6,2,0,2,2,13,,,,,,,,,,,,,,,,,,,f,1,0.7078639999999723,,,,,,,,,,,,,,,,,,,,,,,,,,,,,,,,,,,,888,002,2021_Sep_10_1053,joplin1,2021.2.3,59.96619405799938,
_train_cond.csv,0 1 0 0 0 0 0 0 1 0,2,categoryB,j,,,0,6,6,2,0,3,3,1,,,,,,,,,,,,,,,,,,,j,1,0.1145885410005576,,,,,,,,,,,,,,,,,,,,,,,,,,,,,,,,,,,,888,002,2021_Sep_10_1053,joplin1,2021.2.3,59.96619405799938,
_train_cond.csv,1 1 0 1 0 0 1 0 1 1,6,categoryA,f,,,0,6,6,2,0,4,4,9,,,,,,,,,,,,,,,,,,,f,1,0.5225582910006779,,,,,,,,,,,,,,,,,,,,,,,,,,,,,,,,,,,,888,002,2021_Sep_10_1053,joplin1,2021.2.3,59.96619405799938,
_train_cond.csv,1 1 0 0 0 0 0 0 1 1,4,categoryB,j,,,0,6,6,2,0,5,5,6,,,,,,,,,,,,,,,,,,,j,1,0.4196355420008331,,,,,,,,,,,,,,,,,,,,,,,,,,,,,,,,,,,,888,002,2021_Sep_10_1053,joplin1,2021.2.3,59.96619405799938,
_train_cond.csv,1 0 1 1 1 1 1 1 0 1,8,categoryA,f,,,0,6,6,2,0,6,6,8,,,,,,,,,,,,,,,,,,,f,1,0.3562973750013043,,,,,,,,,,,,,,,,,,,,,,,,,,,,,,,,,,,,888,002,2021_Sep_10_1053,joplin1,2021.2.3,59.96619405799938,
_train_cond.csv,1 1 1 0 0 0 0 1 1 1,6,categoryA,f,,,0,6,6,2,0,7,7,10,,,,,,,,,,,,,,,,,,,f,1,0.4509338330008177,,,,,,,,,,,,,,,,,,,,,,,,,,,,,,,,,,,,888,002,2021_Sep_10_1053,joplin1,2021.2.3,59.96619405799938,
_train_cond.csv,1 1 0 1 1 1 1 0 1 1,8,categoryA,f,,,0,6,6,2,0,8,8,12,,,,,,,,,,,,,,,,,,,j,0,0.13199800000074902,,,,,,,,,,,,,,,,,,,,,,,,,,,,,,,,,,,,888,002,2021_Sep_10_1053,joplin1,2021.2.3,59.96619405799938,
_train_cond.csv,1 0 0 0 0 0 0 0 0 1,2,categoryB,j,,,0,6,6,2,0,9,9,0,,,,,,,,,,,,,,,,,,,j,1,0.26281720800034236,,,,,,,,,,,,,,,,,,,,,,,,,,,,,,,,,,,,888,002,2021_Sep_10_1053,joplin1,2021.2.3,59.96619405799938,
_train_cond.csv,0 0 0 1 0 0 1 0 0 0,2,categoryB,j,,,0,6,6,2,0,10,10,4,,,,,,,,,,,,,,,,,,,j,1,0.3101593329993193,,,,,,,,,,,,,,,,,,,,,,,,,,,,,,,,,,,,888,002,2021_Sep_10_1053,joplin1,2021.2.3,59.96619405799938,
_train_cond.csv,1 1 1 0 1 1 0 1 1 1,8,categoryA,f,,,0,6,6,2,0,11,11,11,,,,,,,,,,,,,,,,,,,f,1,0.28724400000101014,,,,,,,,,,,,,,,,,,,,,,,,,,,,,,,,,,,,888,002,2021_Sep_10_1053,joplin1,2021.2.3,59.96619405799938,
_train_cond.csv,0 0 0 1 1 1 1 0 0 0,4,categoryB,j,,,0,6,6,2,0,12,12,3,,,,,,,,,,,,,,,,,,,j,1,0.40403841699844634,,,,,,,,,,,,,,,,,,,,,,,,,,,,,,,,,,,,888,002,2021_Sep_10_1053,joplin1,2021.2.3,59.96619405799938,
_train_cond.csv,0 0 1 0 1 1 0 1 0 0,4,categoryB,j,,,0,6,6,2,0,13,13,2,,,,,,,,,,,,,,,,,,,f,0,0.2423522499993851,,,,,,,,,,,,,,,,,,,,,,,,,,,,,,,,,,,,888,002,2021_Sep_10_1053,joplin1,2021.2.3,59.96619405799938,
_train_cond.csv,0 0 1 0 1 1 0 1 0 0,4,categoryB,j,,,0,6,6,2,1,0,14,2,,,,,,,,,,,,,,,,,,,f,0,0.8055784999996831,,,,,,,,,,,,,,,,,,,,,,,,,,,,,,,,,,,,888,002,2021_Sep_10_1053,joplin1,2021.2.3,59.96619405799938,
_train_cond.csv,0 1 0 0 0 0 0 0 1 0,2,categoryB,j,,,0,6,6,2,1,1,15,1,,,,,,,,,,,,,,,,,,,j,1,0.23782133299937414,,,,,,,,,,,,,,,,,,,,,,,,,,,,,,,,,,,,888,002,2021_Sep_10_1053,joplin1,2021.2.3,59.96619405799938,
_train_cond.csv,1 1 0 0 0 0 0 0 1 1,4,categoryB,j,,,0,6,6,2,1,2,16,6,,,,,,,,,,,,,,,,,,,j,1,0.21878304199890408,,,,,,,,,,,,,,,,,,,,,,,,,,,,,,,,,,,,888,002,2021_Sep_10_1053,joplin1,2021.2.3,59.96619405799938,
_train_cond.csv,1 1 1 0 1 1 0 1 1 1,8,categoryA,f,,,0,6,6,2,1,3,17,11,,,,,,,,,,,,,,,,,,,f,1,0.19485112500115065,,,,,,,,,,,,,,,,,,,,,,,,,,,,,,,,,,,,888,002,2021_Sep_10_1053,joplin1,2021.2.3,59.96619405799938,
_train_cond.csv,1 0 0 0 0 0 0 0 0 1,2,categoryB,j,,,0,6,6,2,1,4,18,0,,,,,,,,,,,,,,,,,,,j,1,0.4423554579989286,,,,,,,,,,,,,,,,,,,,,,,,,,,,,,,,,,,,888,002,2021_Sep_10_1053,joplin1,2021.2.3,59.96619405799938,
_train_cond.csv,1 1 0 1 0 0 1 0 1 1,6,categoryA,f,,,0,6,6,2,1,5,19,9,,,,,,,,,,,,,,,,,,,f,1,0.9426709580002353,,,,,,,,,,,,,,,,,,,,,,,,,,,,,,,,,,,,888,002,2021_Sep_10_1053,joplin1,2021.2.3,59.96619405799938,
_train_cond.csv,0 1 1 1 1 1 1 1 1 0,8,categoryA,f,,,0,6,6,2,1,6,20,7,,,,,,,,,,,,,,,,,,,f,1,0.1819833749996178,,,,,,,,,,,,,,,,,,,,,,,,,,,,,,,,,,,,888,002,2021_Sep_10_1053,joplin1,2021.2.3,59.96619405799938,
_train_cond.csv,1 1 0 1 1 1 1 0 1 1,8,categoryA,f,,,0,6,6,2,1,7,21,12,,,,,,,,,,,,,,,,,,,j,0,0.6383614170008514,,,,,,,,,,,,,,,,,,,,,,,,,,,,,,,,,,,,888,002,2021_Sep_10_1053,joplin1,2021.2.3,59.96619405799938,
_train_cond.csv,1 0 1 1 1 1 1 1 0 1,8,categoryA,f,,,0,6,6,2,1,8,22,8,,,,,,,,,,,,,,,,,,,f,1,0.17243595800027833,,,,,,,,,,,,,,,,,,,,,,,,,,,,,,,,,,,,888,002,2021_Sep_10_1053,joplin1,2021.2.3,59.96619405799938,
_train_cond.csv,0 0 0 1 1 1 1 0 0 0,4,categoryB,j,,,0,6,6,2,1,9,23,3,,,,,,,,,,,,,,,,,,,j,1,0.6898249160003616,,,,,,,,,,,,,,,,,,,,,,,,,,,,,,,,,,,,888,002,2021_Sep_10_1053,joplin1,2021.2.3,59.96619405799938,
_train_cond.csv,1 1 1 0 0 0 0 1 1 1,6,categoryA,f,,,0,6,6,2,1,10,24,10,,,,,,,,,,,,,,,,,,,f,1,0.6966560830005619,,,,,,,,,,,,,,,,,,,,,,,,,,,,,,,,,,,,888,002,2021_Sep_10_1053,joplin1,2021.2.3,59.96619405799938,
_train_cond.csv,0 0 1 1 1 1 1 1 0 0,6,categoryA,f,,,0,6,6,2,1,11,25,13,,,,,,,,,,,,,,,,,,,f,1,0.31952758400075254,,,,,,,,,,,,,,,,,,,,,,,,,,,,,,,,,,,,888,002,2021_Sep_10_1053,joplin1,2021.2.3,59.96619405799938,
_train_cond.csv,0 0 0 1 0 0 1 0 0 0,2,categoryB,j,,,0,6,6,2,1,12,26,4,,,,,,,,,,,,,,,,,,,j,1,0.9405929580007069,,,,,,,,,,,,,,,,,,,,,,,,,,,,,,,,,,,,888,002,2021_Sep_10_1053,joplin1,2021.2.3,59.96619405799938,
_train_cond.csv,0 0 1 0 0 0 0 1 0 0,2,categoryB,j,,,0,6,6,2,1,13,27,5,,,,,,,,,,,,,,,,,,,j,1,0.46778774999984307,,,,,,,,,,,,,,,,,,,,,,,,,,,,,,,,,,,,888,002,2021_Sep_10_1053,joplin1,2021.2.3,59.96619405799938,
_train_cond.csv,1 1 1 0 1 1 0 1 1 1,8,categoryA,f,,,0,6,6,2,2,0,28,11,,,,,,,,,,,,,,,,,,,f,1,0.3960997499998484,,,,,,,,,,,,,,,,,,,,,,,,,,,,,,,,,,,,888,002,2021_Sep_10_1053,joplin1,2021.2.3,59.96619405799938,
_train_cond.csv,0 0 0 1 1 1 1 0 0 0,4,categoryB,j,,,0,6,6,2,2,1,29,3,,,,,,,,,,,,,,,,,,,f,0,0.9319805830000405,,,,,,,,,,,,,,,,,,,,,,,,,,,,,,,,,,,,888,002,2021_Sep_10_1053,joplin1,2021.2.3,59.96619405799938,
_train_cond.csv,1 0 1 1 1 1 1 1 0 1,8,categoryA,f,,,0,6,6,2,2,2,30,8,,,,,,,,,,,,,,,,,,,f,1,0.5445345410007576,,,,,,,,,,,,,,,,,,,,,,,,,,,,,,,,,,,,888,002,2021_Sep_10_1053,joplin1,2021.2.3,59.96619405799938,
_train_cond.csv,1 0 0 0 0 0 0 0 0 1,2,categoryB,j,,,0,6,6,2,2,3,31,0,,,,,,,,,,,,,,,,,,,j,1,0.320491000000402,,,,,,,,,,,,,,,,,,,,,,,,,,,,,,,,,,,,888,002,2021_Sep_10_1053,joplin1,2021.2.3,59.96619405799938,
_train_cond.csv,0 0 1 0 0 0 0 1 0 0,2,categoryB,j,,,0,6,6,2,2,4,32,5,,,,,,,,,,,,,,,,,,,f,0,0.26625274999969406,,,,,,,,,,,,,,,,,,,,,,,,,,,,,,,,,,,,888,002,2021_Sep_10_1053,joplin1,2021.2.3,59.96619405799938,
_train_cond.csv,1 1 0 0 0 0 0 0 1 1,4,categoryB,j,,,0,6,6,2,2,5,33,6,,,,,,,,,,,,,,,,,,,j,1,0.21336562500073342,,,,,,,,,,,,,,,,,,,,,,,,,,,,,,,,,,,,888,002,2021_Sep_10_1053,joplin1,2021.2.3,59.96619405799938,
_train_cond.csv,0 0 1 1 1 1 1 1 0 0,6,categoryA,f,,,0,6,6,2,2,6,34,13,,,,,,,,,,,,,,,,,,,j,0,0.23887049999939336,,,,,,,,,,,,,,,,,,,,,,,,,,,,,,,,,,,,888,002,2021_Sep_10_1053,joplin1,2021.2.3,59.96619405799938,
_train_cond.csv,1 1 0 1 1 1 1 0 1 1,8,categoryA,f,,,0,6,6,2,2,7,35,12,,,,,,,,,,,,,,,,,,,f,1,1.5730021670005954,,,,,,,,,,,,,,,,,,,,,,,,,,,,,,,,,,,,888,002,2021_Sep_10_1053,joplin1,2021.2.3,59.96619405799938,
_train_cond.csv,1 1 1 0 0 0 0 1 1 1,6,categoryA,f,,,0,6,6,2,2,8,36,10,,,,,,,,,,,,,,,,,,,f,1,0.3174639999997453,,,,,,,,,,,,,,,,,,,,,,,,,,,,,,,,,,,,888,002,2021_Sep_10_1053,joplin1,2021.2.3,59.96619405799938,
_train_cond.csv,0 1 1 1 1 1 1 1 1 0,8,categoryA,f,,,0,6,6,2,2,9,37,7,,,,,,,,,,,,,,,,,,,f,1,0.36203308399853995,,,,,,,,,,,,,,,,,,,,,,,,,,,,,,,,,,,,888,002,2021_Sep_10_1053,joplin1,2021.2.3,59.96619405799938,
_train_cond.csv,0 0 0 1 0 0 1 0 0 0,2,categoryB,j,,,0,6,6,2,2,10,38,4,,,,,,,,,,,,,,,,,,,j,1,0.26676504199895135,,,,,,,,,,,,,,,,,,,,,,,,,,,,,,,,,,,,888,002,2021_Sep_10_1053,joplin1,2021.2.3,59.96619405799938,
_train_cond.csv,0 1 0 0 0 0 0 0 1 0,2,categoryB,j,,,0,6,6,2,2,11,39,1,,,,,,,,,,,,,,,,,,,j,1,0.2648892920005892,,,,,,,,,,,,,,,,,,,,,,,,,,,,,,,,,,,,888,002,2021_Sep_10_1053,joplin1,2021.2.3,59.96619405799938,
_train_cond.csv,0 0 1 0 1 1 0 1 0 0,4,categoryB,j,,,0,6,6,2,2,12,40,2,,,,,,,,,,,,,,,,,,,j,1,0.40749941600006423,,,,,,,,,,,,,,,,,,,,,,,,,,,,,,,,,,,,888,002,2021_Sep_10_1053,joplin1,2021.2.3,59.96619405799938,
_train_cond.csv,1 1 0 1 0 0 1 0 1 1,6,categoryA,f,,,0,6,6,2,2,13,41,9,,,,,,,,,,,,,,,,,,,j,0,0.24502879100145947,,,,,,,,,,,,,,,,,,,,,,,,,,,,,,,,,,,,888,002,2021_Sep_10_1053,joplin1,2021.2.3,59.96619405799938,
_train_cond.csv,,,,,,,0,6,6,2,,,,,,,,,,,,,,,,,,,,,,,,,,space,0.9673373749992606,,,,,,,,,,,,,,,,,,,,,,,,,,,,,,,,,,888,002,2021_Sep_10_1053,joplin1,2021.2.3,59.96619405799938,
_train_cond.csv,0 0 0 1 0 0 1 0 0 0,2,categoryB,j,,,0,7,7,0,0,0,0,4,,,,,,,,,,,,,,,,,,,j,1,0.5720142080008372,,,,,,,,,,,,,,,,,,,,,,,,,,,,,,,,,,,,888,002,2021_Sep_10_1053,joplin1,2021.2.3,59.96619405799938,
_train_cond.csv,1 1 1 0 1 1 0 1 1 1,8,categoryA,f,,,0,7,7,0,0,1,1,11,,,,,,,,,,,,,,,,,,,f,1,0.25190987499991024,,,,,,,,,,,,,,,,,,,,,,,,,,,,,,,,,,,,888,002,2021_Sep_10_1053,joplin1,2021.2.3,59.96619405799938,
_train_cond.csv,0 0 0 1 1 1 1 0 0 0,4,categoryB,j,,,0,7,7,0,0,2,2,3,,,,,,,,,,,,,,,,,,,j,1,0.4876688339991233,,,,,,,,,,,,,,,,,,,,,,,,,,,,,,,,,,,,888,002,2021_Sep_10_1053,joplin1,2021.2.3,59.96619405799938,
_train_cond.csv,0 1 1 1 1 1 1 1 1 0,8,categoryA,f,,,0,7,7,0,0,3,3,7,,,,,,,,,,,,,,,,,,,f,1,0.2500317920002999,,,,,,,,,,,,,,,,,,,,,,,,,,,,,,,,,,,,888,002,2021_Sep_10_1053,joplin1,2021.2.3,59.96619405799938,
_train_cond.csv,1 0 1 1 1 1 1 1 0 1,8,categoryA,f,,,0,7,7,0,0,4,4,8,,,,,,,,,,,,,,,,,,,f,1,0.26867645799939055,,,,,,,,,,,,,,,,,,,,,,,,,,,,,,,,,,,,888,002,2021_Sep_10_1053,joplin1,2021.2.3,59.96619405799938,
_train_cond.csv,0 0 1 0 1 1 0 1 0 0,4,categoryB,j,,,0,7,7,0,0,5,5,2,,,,,,,,,,,,,,,,,,,f,0,0.7934363749991462,,,,,,,,,,,,,,,,,,,,,,,,,,,,,,,,,,,,888,002,2021_Sep_10_1053,joplin1,2021.2.3,59.96619405799938,
_train_cond.csv,0 1 0 0 0 0 0 0 1 0,2,categoryB,j,,,0,7,7,0,0,6,6,1,,,,,,,,,,,,,,,,,,,j,1,0.02462970799933828,,,,,,,,,,,,,,,,,,,,,,,,,,,,,,,,,,,,888,002,2021_Sep_10_1053,joplin1,2021.2.3,59.96619405799938,
_train_cond.csv,1 1 0 1 1 1 1 0 1 1,8,categoryA,f,,,0,7,7,0,0,7,7,12,,,,,,,,,,,,,,,,,,,j,0,0.2682273330010503,,,,,,,,,,,,,,,,,,,,,,,,,,,,,,,,,,,,888,002,2021_Sep_10_1053,joplin1,2021.2.3,59.96619405799938,
_train_cond.csv,1 1 1 0 0 0 0 1 1 1,6,categoryA,f,,,0,7,7,0,0,8,8,10,,,,,,,,,,,,,,,,,,,f,1,0.3461040000001958,,,,,,,,,,,,,,,,,,,,,,,,,,,,,,,,,,,,888,002,2021_Sep_10_1053,joplin1,2021.2.3,59.96619405799938,
_train_cond.csv,1 0 0 0 0 0 0 0 0 1,2,categoryB,j,,,0,7,7,0,0,9,9,0,,,,,,,,,,,,,,,,,,,j,1,0.3545953749999171,,,,,,,,,,,,,,,,,,,,,,,,,,,,,,,,,,,,888,002,2021_Sep_10_1053,joplin1,2021.2.3,59.96619405799938,
_train_cond.csv,1 1 0 1 0 0 1 0 1 1,6,categoryA,f,,,0,7,7,0,0,10,10,9,,,,,,,,,,,,,,,,,,,f,1,0.4434324169997126,,,,,,,,,,,,,,,,,,,,,,,,,,,,,,,,,,,,888,002,2021_Sep_10_1053,joplin1,2021.2.3,59.96619405799938,
_train_cond.csv,1 1 0 0 0 0 0 0 1 1,4,categoryB,j,,,0,7,7,0,0,11,11,6,,,,,,,,,,,,,,,,,,,j,1,0.2800825829999667,,,,,,,,,,,,,,,,,,,,,,,,,,,,,,,,,,,,888,002,2021_Sep_10_1053,joplin1,2021.2.3,59.96619405799938,
_train_cond.csv,0 0 1 0 0 0 0 1 0 0,2,categoryB,j,,,0,7,7,0,0,12,12,5,,,,,,,,,,,,,,,,,,,f,0,0.24850316700030817,,,,,,,,,,,,,,,,,,,,,,,,,,,,,,,,,,,,888,002,2021_Sep_10_1053,joplin1,2021.2.3,59.96619405799938,
_train_cond.csv,0 0 1 1 1 1 1 1 0 0,6,categoryA,f,,,0,7,7,0,0,13,13,13,,,,,,,,,,,,,,,,,,,j,0,0.027776041000834084,,,,,,,,,,,,,,,,,,,,,,,,,,,,,,,,,,,,888,002,2021_Sep_10_1053,joplin1,2021.2.3,59.96619405799938,
_train_cond.csv,0 0 1 0 0 0 0 1 0 0,2,categoryB,j,,,0,7,7,0,1,0,14,5,,,,,,,,,,,,,,,,,,,j,1,0.27552449999893724,,,,,,,,,,,,,,,,,,,,,,,,,,,,,,,,,,,,888,002,2021_Sep_10_1053,joplin1,2021.2.3,59.96619405799938,
_train_cond.csv,0 0 0 1 1 1 1 0 0 0,4,categoryB,j,,,0,7,7,0,1,1,15,3,,,,,,,,,,,,,,,,,,,j,1,0.2916613329998654,,,,,,,,,,,,,,,,,,,,,,,,,,,,,,,,,,,,888,002,2021_Sep_10_1053,joplin1,2021.2.3,59.96619405799938,
_train_cond.csv,1 1 1 0 0 0 0 1 1 1,6,categoryA,f,,,0,7,7,0,1,2,16,10,,,,,,,,,,,,,,,,,,,f,1,0.07324562499888998,,,,,,,,,,,,,,,,,,,,,,,,,,,,,,,,,,,,888,002,2021_Sep_10_1053,joplin1,2021.2.3,59.96619405799938,
_train_cond.csv,1 0 0 0 0 0 0 0 0 1,2,categoryB,j,,,0,7,7,0,1,3,17,0,,,,,,,,,,,,,,,,,,,j,1,0.33513308399960806,,,,,,,,,,,,,,,,,,,,,,,,,,,,,,,,,,,,888,002,2021_Sep_10_1053,joplin1,2021.2.3,59.96619405799938,
_train_cond.csv,1 1 0 1 1 1 1 0 1 1,8,categoryA,f,,,0,7,7,0,1,4,18,12,,,,,,,,,,,,,,,,,,,j,0,0.8997624160001578,,,,,,,,,,,,,,,,,,,,,,,,,,,,,,,,,,,,888,002,2021_Sep_10_1053,joplin1,2021.2.3,59.96619405799938,
_train_cond.csv,0 0 1 1 1 1 1 1 0 0,6,categoryA,f,,,0,7,7,0,1,5,19,13,,,,,,,,,,,,,,,,,,,j,0,0.23755687500124623,,,,,,,,,,,,,,,,,,,,,,,,,,,,,,,,,,,,888,002,2021_Sep_10_1053,joplin1,2021.2.3,59.96619405799938,
_train_cond.csv,1 1 0 1 0 0 1 0 1 1,6,categoryA,f,,,0,7,7,0,1,6,20,9,,,,,,,,,,,,,,,,,,,f,1,0.269126667000819,,,,,,,,,,,,,,,,,,,,,,,,,,,,,,,,,,,,888,002,2021_Sep_10_1053,joplin1,2021.2.3,59.96619405799938,
_train_cond.csv,1 0 1 1 1 1 1 1 0 1,8,categoryA,f,,,0,7,7,0,1,7,21,8,,,,,,,,,,,,,,,,,,,f,1,0.2830185840011836,,,,,,,,,,,,,,,,,,,,,,,,,,,,,,,,,,,,888,002,2021_Sep_10_1053,joplin1,2021.2.3,59.96619405799938,
_train_cond.csv,0 0 0 1 0 0 1 0 0 0,2,categoryB,j,,,0,7,7,0,1,8,22,4,,,,,,,,,,,,,,,,,,,j,1,0.2481396670009417,,,,,,,,,,,,,,,,,,,,,,,,,,,,,,,,,,,,888,002,2021_Sep_10_1053,joplin1,2021.2.3,59.96619405799938,
_train_cond.csv,1 1 0 0 0 0 0 0 1 1,4,categoryB,j,,,0,7,7,0,1,9,23,6,,,,,,,,,,,,,,,,,,,f,0,0.26503316599882965,,,,,,,,,,,,,,,,,,,,,,,,,,,,,,,,,,,,888,002,2021_Sep_10_1053,joplin1,2021.2.3,59.96619405799938,
_train_cond.csv,0 0 1 0 1 1 0 1 0 0,4,categoryB,j,,,0,7,7,0,1,10,24,2,,,,,,,,,,,,,,,,,,,f,0,0.2629243339997629,,,,,,,,,,,,,,,,,,,,,,,,,,,,,,,,,,,,888,002,2021_Sep_10_1053,joplin1,2021.2.3,59.96619405799938,
_train_cond.csv,1 1 1 0 1 1 0 1 1 1,8,categoryA,f,,,0,7,7,0,1,11,25,11,,,,,,,,,,,,,,,,,,,f,1,0.2789028330007568,,,,,,,,,,,,,,,,,,,,,,,,,,,,,,,,,,,,888,002,2021_Sep_10_1053,joplin1,2021.2.3,59.96619405799938,
_train_cond.csv,0 1 0 0 0 0 0 0 1 0,2,categoryB,j,,,0,7,7,0,1,12,26,1,,,,,,,,,,,,,,,,,,,j,1,0.23633070799951383,,,,,,,,,,,,,,,,,,,,,,,,,,,,,,,,,,,,888,002,2021_Sep_10_1053,joplin1,2021.2.3,59.96619405799938,
_train_cond.csv,0 1 1 1 1 1 1 1 1 0,8,categoryA,f,,,0,7,7,0,1,13,27,7,,,,,,,,,,,,,,,,,,,f,1,0.8862059170005523,,,,,,,,,,,,,,,,,,,,,,,,,,,,,,,,,,,,888,002,2021_Sep_10_1053,joplin1,2021.2.3,59.96619405799938,
_train_cond.csv,0 0 1 1 1 1 1 1 0 0,6,categoryA,f,,,0,7,7,0,2,0,28,13,,,,,,,,,,,,,,,,,,,j,0,0.01930829199955042,,,,,,,,,,,,,,,,,,,,,,,,,,,,,,,,,,,,888,002,2021_Sep_10_1053,joplin1,2021.2.3,59.96619405799938,
_train_cond.csv,1 0 0 0 0 0 0 0 0 1,2,categoryB,j,,,0,7,7,0,2,1,29,0,,,,,,,,,,,,,,,,,,,j,1,0.5988292910005839,,,,,,,,,,,,,,,,,,,,,,,,,,,,,,,,,,,,888,002,2021_Sep_10_1053,joplin1,2021.2.3,59.96619405799938,
_train_cond.csv,1 0 1 1 1 1 1 1 0 1,8,categoryA,f,,,0,7,7,0,2,2,30,8,,,,,,,,,,,,,,,,,,,f,1,0.24808870800006844,,,,,,,,,,,,,,,,,,,,,,,,,,,,,,,,,,,,888,002,2021_Sep_10_1053,joplin1,2021.2.3,59.96619405799938,
_train_cond.csv,0 0 1 0 0 0 0 1 0 0,2,categoryB,j,,,0,7,7,0,2,3,31,5,,,,,,,,,,,,,,,,,,,j,1,0.23175770899979398,,,,,,,,,,,,,,,,,,,,,,,,,,,,,,,,,,,,888,002,2021_Sep_10_1053,joplin1,2021.2.3,59.96619405799938,
_train_cond.csv,0 0 1 0 1 1 0 1 0 0,4,categoryB,j,,,0,7,7,0,2,4,32,2,,,,,,,,,,,,,,,,,,,j,1,0.27638108400060446,,,,,,,,,,,,,,,,,,,,,,,,,,,,,,,,,,,,888,002,2021_Sep_10_1053,joplin1,2021.2.3,59.96619405799938,
_train_cond.csv,1 1 0 1 0 0 1 0 1 1,6,categoryA,f,,,0,7,7,0,2,5,33,9,,,,,,,,,,,,,,,,,,,j,0,1.5588512080012151,,,,,,,,,,,,,,,,,,,,,,,,,,,,,,,,,,,,888,002,2021_Sep_10_1053,joplin1,2021.2.3,59.96619405799938,
_train_cond.csv,1 1 0 0 0 0 0 0 1 1,4,categoryB,j,,,0,7,7,0,2,6,34,6,,,,,,,,,,,,,,,,,,,j,1,0.46011162499962666,,,,,,,,,,,,,,,,,,,,,,,,,,,,,,,,,,,,888,002,2021_Sep_10_1053,joplin1,2021.2.3,59.96619405799938,
_train_cond.csv,1 1 1 0 1 1 0 1 1 1,8,categoryA,f,,,0,7,7,0,2,7,35,11,,,,,,,,,,,,,,,,,,,f,1,0.32333112499873096,,,,,,,,,,,,,,,,,,,,,,,,,,,,,,,,,,,,888,002,2021_Sep_10_1053,joplin1,2021.2.3,59.96619405799938,
_train_cond.csv,0 0 0 1 0 0 1 0 0 0,2,categoryB,j,,,0,7,7,0,2,8,36,4,,,,,,,,,,,,,,,,,,,j,1,0.27746695799942245,,,,,,,,,,,,,,,,,,,,,,,,,,,,,,,,,,,,888,002,2021_Sep_10_1053,joplin1,2021.2.3,59.96619405799938,
_train_cond.csv,0 0 0 1 1 1 1 0 0 0,4,categoryB,j,,,0,7,7,0,2,9,37,3,,,,,,,,,,,,,,,,,,,j,1,0.3261354999995092,,,,,,,,,,,,,,,,,,,,,,,,,,,,,,,,,,,,888,002,2021_Sep_10_1053,joplin1,2021.2.3,59.96619405799938,
_train_cond.csv,1 1 1 0 0 0 0 1 1 1,6,categoryA,f,,,0,7,7,0,2,10,38,10,,,,,,,,,,,,,,,,,,,f,1,0.2928704170008132,,,,,,,,,,,,,,,,,,,,,,,,,,,,,,,,,,,,888,002,2021_Sep_10_1053,joplin1,2021.2.3,59.96619405799938,
_train_cond.csv,0 1 0 0 0 0 0 0 1 0,2,categoryB,j,,,0,7,7,0,2,11,39,1,,,,,,,,,,,,,,,,,,,j,1,0.313390667000931,,,,,,,,,,,,,,,,,,,,,,,,,,,,,,,,,,,,888,002,2021_Sep_10_1053,joplin1,2021.2.3,59.96619405799938,
_train_cond.csv,1 1 0 1 1 1 1 0 1 1,8,categoryA,f,,,0,7,7,0,2,12,40,12,,,,,,,,,,,,,,,,,,,j,0,0.2612861249999696,,,,,,,,,,,,,,,,,,,,,,,,,,,,,,,,,,,,888,002,2021_Sep_10_1053,joplin1,2021.2.3,59.96619405799938,
_train_cond.csv,0 1 1 1 1 1 1 1 1 0,8,categoryA,f,,,0,7,7,0,2,13,41,7,,,,,,,,,,,,,,,,,,,f,1,0.977815209000255,,,,,,,,,,,,,,,,,,,,,,,,,,,,,,,,,,,,888,002,2021_Sep_10_1053,joplin1,2021.2.3,59.96619405799938,
_train_cond.csv,,,,,,,0,7,7,0,,,,,,,,,,,,,,,,,,,,,,,,,,space,1.0554038749996835,,,,,,,,,,,,,,,,,,,,,,,,,,,,,,,,,,888,002,2021_Sep_10_1053,joplin1,2021.2.3,59.96619405799938,
,,,,,,,,,,,,,,,,,,,,,,,,,,,,,,,,,,,,,,q,18.844636167001227,,,,,,,,,,,,,,,,,,,,,,,,,,,,,,,,888,002,2021_Sep_10_1053,joplin1,2021.2.3,59.96619405799938,
,,,,,,,,,,,,,,,,,,,,,,,,,,,,,,,,,,,,,,,,j,16.853231875000347,,,,,,,,,,,,,,,,,,,,,,,,,,,,,,888,002,2021_Sep_10_1053,joplin1,2021.2.3,59.96619405799938,
,,,,,,,,,,,,,,,,,,,,,,,,,,,,,,,,,,,,,,,,,,space,4.1206248339985905,,,,,,,,,,,,,,,,,,,,,,,,,,,,888,002,2021_Sep_10_1053,joplin1,2021.2.3,59.96619405799938,
,,,,,,,,,,,,,,,,,,,,,,,,,,,,,,,,,,,,,,,,,,,,space,0.8066138750000391,,,,,,,,,,,,,,,,,,,,,,,,,,888,002,2021_Sep_10_1053,joplin1,2021.2.3,59.96619405799938,
,1 1 1 1 1 1 1 1 0 1,9,categoryA,f,genfile2.csv,0,,,,,,,,,0,0,0,1,0,0,0,52,,,,,,,,,,,,,,,,,,,,,,,,f,1,0.23853254200002993,,,,,,,,,,,,,,,,,,,,,,,888,002,2021_Sep_10_1053,joplin1,2021.2.3,59.96619405799938,
,0 1 0 0 0 0 0 0 1 0,2,categoryB,j,genfile2.csv,1,,,,,,,,,0,0,0,1,0,1,1,3,,,,,,,,,,,,,,,,,,,,,,,,j,1,0.16043245800028672,,,,,,,,,,,,,,,,,,,,,,,888,002,2021_Sep_10_1053,joplin1,2021.2.3,59.96619405799938,
,1 1 1 0 1 1 0 1 1 1,8,categoryA,f,genfile2.csv,1,,,,,,,,,0,0,0,1,0,2,2,13,,,,,,,,,,,,,,,,,,,,,,,,f,1,0.3364074580003944,,,,,,,,,,,,,,,,,,,,,,,888,002,2021_Sep_10_1053,joplin1,2021.2.3,59.96619405799938,
,0 1 1 0 0 0 0 0 0 0,2,categoryB,j,genfile2.csv,0,,,,,,,,,0,0,0,1,0,3,3,21,,,,,,,,,,,,,,,,,,,,,,,,j,1,0.36212637499920675,,,,,,,,,,,,,,,,,,,,,,,888,002,2021_Sep_10_1053,joplin1,2021.2.3,59.96619405799938,
,1 1 0 0 0 1 0 0 0 0,3,categoryB,j,genfile2.csv,0,,,,,,,,,0,0,0,1,0,4,4,30,,,,,,,,,,,,,,,,,,,,,,,,j,1,0.5005815000004077,,,,,,,,,,,,,,,,,,,,,,,888,002,2021_Sep_10_1053,joplin1,2021.2.3,59.96619405799938,
,1 1 1 1 1 1 1 1 1 1,10,categoryA,f,genfile2.csv,0,,,,,,,,,0,0,0,1,0,5,5,1,,,,,,,,,,,,,,,,,,,,,,,,f,1,0.23855458300022292,,,,,,,,,,,,,,,,,,,,,,,888,002,2021_Sep_10_1053,joplin1,2021.2.3,59.96619405799938,
,1 0 0 1 0 0 0 0 0 0,2,categoryB,j,genfile2.csv,0,,,,,,,,,0,0,0,1,0,6,6,23,,,,,,,,,,,,,,,,,,,,,,,,f,0,1.6284486250006012,,,,,,,,,,,,,,,,,,,,,,,888,002,2021_Sep_10_1053,joplin1,2021.2.3,59.96619405799938,
,0 0 1 0 1 1 0 1 0 0,4,categoryB,j,genfile2.csv,1,,,,,,,,,0,0,0,1,0,7,7,4,,,,,,,,,,,,,,,,,,,,,,,,j,1,1.0908285829991655,,,,,,,,,,,,,,,,,,,,,,,888,002,2021_Sep_10_1053,joplin1,2021.2.3,59.96619405799938,
,0 1 0 1 0 1 1 0 0 0,4,categoryB,j,genfile2.csv,0,,,,,,,,,0,0,0,1,0,8,8,35,,,,,,,,,,,,,,,,,,,,,,,,j,1,0.6769754999986617,,,,,,,,,,,,,,,,,,,,,,,888,002,2021_Sep_10_1053,joplin1,2021.2.3,59.96619405799938,
,1 1 0 1 1 1 0 1 1 1,8,categoryA,f,genfile2.csv,0,,,,,,,,,0,0,0,1,0,9,9,46,,,,,,,,,,,,,,,,,,,,,,,,f,1,1.6227571250001347,,,,,,,,,,,,,,,,,,,,,,,888,002,2021_Sep_10_1053,joplin1,2021.2.3,59.96619405799938,
,1 1 1 0 1 0 1 1 1 1,8,categoryA,f,genfile2.csv,0,,,,,,,,,0,0,0,1,0,10,10,47,,,,,,,,,,,,,,,,,,,,,,,,f,1,1.0510977919984725,,,,,,,,,,,,,,,,,,,,,,,888,002,2021_Sep_10_1053,joplin1,2021.2.3,59.96619405799938,
,1 0 0 0 0 0 0 0 0 1,2,categoryB,j,genfile2.csv,1,,,,,,,,,0,0,0,1,0,11,11,2,,,,,,,,,,,,,,,,,,,,,,,,j,1,0.2522230419999687,,,,,,,,,,,,,,,,,,,,,,,888,002,2021_Sep_10_1053,joplin1,2021.2.3,59.96619405799938,
,1 1 1 0 1 0 0 1 0 1,6,categoryA,f,genfile2.csv,0,,,,,,,,,0,0,0,1,0,12,12,38,,,,,,,,,,,,,,,,,,,,,,,,f,1,1.0860022910001135,,,,,,,,,,,,,,,,,,,,,,,888,002,2021_Sep_10_1053,joplin1,2021.2.3,59.96619405799938,
,1 1 0 1 1 1 1 0 1 1,8,categoryA,f,genfile2.csv,1,,,,,,,,,0,0,0,1,0,13,13,14,,,,,,,,,,,,,,,,,,,,,,,,j,0,0.24317995899946254,,,,,,,,,,,,,,,,,,,,,,,888,002,2021_Sep_10_1053,joplin1,2021.2.3,59.96619405799938,
,0 1 1 0 0 1 1 1 1 0,6,categoryA,f,genfile2.csv,0,,,,,,,,,0,0,0,1,0,14,14,37,,,,,,,,,,,,,,,,,,,,,,,,f,1,0.4512638340002013,,,,,,,,,,,,,,,,,,,,,,,888,002,2021_Sep_10_1053,joplin1,2021.2.3,59.96619405799938,
,1 1 0 1 0 0 1 0 1 1,6,categoryA,f,genfile2.csv,1,,,,,,,,,0,0,0,1,0,15,15,11,,,,,,,,,,,,,,,,,,,,,,,,j,0,0.2424657080009638,,,,,,,,,,,,,,,,,,,,,,,888,002,2021_Sep_10_1053,joplin1,2021.2.3,59.96619405799938,
,0 1 1 0 1 0 1 1 1 1,7,categoryA,f,genfile2.csv,0,,,,,,,,,0,0,0,1,0,16,16,41,,,,,,,,,,,,,,,,,,,,,,,,f,1,0.4346720829998958,,,,,,,,,,,,,,,,,,,,,,,888,002,2021_Sep_10_1053,joplin1,2021.2.3,59.96619405799938,
,1 1 1 1 0 1 1 0 1 1,8,categoryA,f,genfile2.csv,0,,,,,,,,,0,0,0,1,0,17,17,50,,,,,,,,,,,,,,,,,,,,,,,,f,1,0.6452808329995605,,,,,,,,,,,,,,,,,,,,,,,888,002,2021_Sep_10_1053,joplin1,2021.2.3,59.96619405799938,
,0 0 0 0 0 1 0 0 0 0,1,categoryB,j,genfile2.csv,0,,,,,,,,,0,0,0,1,0,18,18,17,,,,,,,,,,,,,,,,,,,,,,,,j,1,0.2814436670014402,,,,,,,,,,,,,,,,,,,,,,,888,002,2021_Sep_10_1053,joplin1,2021.2.3,59.96619405799938,
,1 0 1 1 1 0 1 0 1 0,6,categoryA,f,genfile2.csv,0,,,,,,,,,0,0,0,1,0,19,19,36,,,,,,,,,,,,,,,,,,,,,,,,f,1,1.9886820829997305,,,,,,,,,,,,,,,,,,,,,,,888,002,2021_Sep_10_1053,joplin1,2021.2.3,59.96619405799938,
,0 0 0 1 0 0 1 0 0 0,2,categoryB,j,genfile2.csv,1,,,,,,,,,0,0,0,1,0,20,20,6,,,,,,,,,,,,,,,,,,,,,,,,j,1,0.2889010409999173,,,,,,,,,,,,,,,,,,,,,,,888,002,2021_Sep_10_1053,joplin1,2021.2.3,59.96619405799938,
,0 0 1 0 0 0 0 1 0 0,2,categoryB,j,genfile2.csv,1,,,,,,,,,0,0,0,1,0,21,21,7,,,,,,,,,,,,,,,,,,,,,,,,f,0,0.9632549159996415,,,,,,,,,,,,,,,,,,,,,,,888,002,2021_Sep_10_1053,joplin1,2021.2.3,59.96619405799938,
,0 0 0 1 0 0 0 0 0 0,1,categoryB,j,genfile2.csv,0,,,,,,,,,0,0,0,1,0,22,22,18,,,,,,,,,,,,,,,,,,,,,,,,j,1,0.39988575000097626,,,,,,,,,,,,,,,,,,,,,,,888,002,2021_Sep_10_1053,joplin1,2021.2.3,59.96619405799938,
,0 0 0 1 1 1 1 0 0 0,4,categoryB,j,genfile2.csv,1,,,,,,,,,0,0,0,1,0,23,23,5,,,,,,,,,,,,,,,,,,,,,,,,j,1,0.4877708750009333,,,,,,,,,,,,,,,,,,,,,,,888,002,2021_Sep_10_1053,joplin1,2021.2.3,59.96619405799938,
,1 1 1 1 1 0 1 1 1 1,9,categoryA,f,genfile2.csv,0,,,,,,,,,0,0,0,1,0,24,24,54,,,,,,,,,,,,,,,,,,,,,,,,f,1,0.2712434579989349,,,,,,,,,,,,,,,,,,,,,,,888,002,2021_Sep_10_1053,joplin1,2021.2.3,59.96619405799938,
,0 0 0 0 0 1 0 0 0 1,2,categoryB,j,genfile2.csv,0,,,,,,,,,0,0,0,1,0,25,25,24,,,,,,,,,,,,,,,,,,,,,,,,j,1,0.24412254200069583,,,,,,,,,,,,,,,,,,,,,,,888,002,2021_Sep_10_1053,joplin1,2021.2.3,59.96619405799938,
,0 1 0 1 0 0 0 1 0 1,4,categoryB,j,genfile2.csv,0,,,,,,,,,0,0,0,1,0,26,26,34,,,,,,,,,,,,,,,,,,,,,,,,f,0,0.3558764580011484,,,,,,,,,,,,,,,,,,,,,,,888,002,2021_Sep_10_1053,joplin1,2021.2.3,59.96619405799938,
,1 1 1 0 0 0 0 1 1 1,6,categoryA,f,genfile2.csv,1,,,,,,,,,0,0,0,1,0,27,27,12,,,,,,,,,,,,,,,,,,,,,,,,f,1,0.2989145000010467,,,,,,,,,,,,,,,,,,,,,,,888,002,2021_Sep_10_1053,joplin1,2021.2.3,59.96619405799938,
,1 0 1 0 0 1 0 1 1 1,6,categoryA,f,genfile2.csv,0,,,,,,,,,0,0,0,1,0,28,28,39,,,,,,,,,,,,,,,,,,,,,,,,f,1,0.8633297500000481,,,,,,,,,,,,,,,,,,,,,,,888,002,2021_Sep_10_1053,joplin1,2021.2.3,59.96619405799938,
,0 1 1 1 1 1 1 1 1 0,8,categoryA,f,genfile2.csv,1,,,,,,,,,0,0,0,1,0,29,29,9,,,,,,,,,,,,,,,,,,,,,,,,f,1,0.9369717500012484,,,,,,,,,,,,,,,,,,,,,,,888,002,2021_Sep_10_1053,joplin1,2021.2.3,59.96619405799938,
,1 0 0 0 0 1 1 0 1 0,4,categoryB,j,genfile2.csv,0,,,,,,,,,0,0,0,1,0,30,30,33,,,,,,,,,,,,,,,,,,,,,,,,j,1,0.23052208300032362,,,,,,,,,,,,,,,,,,,,,,,888,002,2021_Sep_10_1053,joplin1,2021.2.3,59.96619405799938,
,0 1 1 1 1 1 1 1 0 1,8,categoryA,f,genfile2.csv,0,,,,,,,,,0,0,0,1,0,31,31,49,,,,,,,,,,,,,,,,,,,,,,,,f,1,0.28669195799921,,,,,,,,,,,,,,,,,,,,,,,888,002,2021_Sep_10_1053,joplin1,2021.2.3,59.96619405799938,
,0 0 1 1 1 0 1 1 1 1,7,categoryA,f,genfile2.csv,0,,,,,,,,,0,0,0,1,0,32,32,44,,,,,,,,,,,,,,,,,,,,,,,,f,1,0.3347882079997362,,,,,,,,,,,,,,,,,,,,,,,888,002,2021_Sep_10_1053,joplin1,2021.2.3,59.96619405799938,
,1 1 1 1 1 1 0 1 1 1,9,categoryA,f,genfile2.csv,0,,,,,,,,,0,0,0,1,0,33,33,53,,,,,,,,,,,,,,,,,,,,,,,,f,1,2.046393208000154,,,,,,,,,,,,,,,,,,,,,,,888,002,2021_Sep_10_1053,joplin1,2021.2.3,59.96619405799938,
,1 1 1 0 0 1 1 0 1 1,7,categoryA,f,genfile2.csv,0,,,,,,,,,0,0,0,1,0,34,34,42,,,,,,,,,,,,,,,,,,,,,,,,j,0,0.20485250000092492,,,,,,,,,,,,,,,,,,,,,,,888,002,2021_Sep_10_1053,joplin1,2021.2.3,59.96619405799938,
,1 1 0 0 0 0 0 0 1 1,4,categoryB,j,genfile2.csv,1,,,,,,,,,0,0,0,1,0,35,35,8,,,,,,,,,,,,,,,,,,,,,,,,j,1,0.29332062499997846,,,,,,,,,,,,,,,,,,,,,,,888,002,2021_Sep_10_1053,joplin1,2021.2.3,59.96619405799938,
,0 0 0 1 0 1 1 0 0 0,3,categoryB,j,genfile2.csv,0,,,,,,,,,0,0,0,1,0,36,36,26,,,,,,,,,,,,,,,,,,,,,,,,j,1,0.2006993329996476,,,,,,,,,,,,,,,,,,,,,,,888,002,2021_Sep_10_1053,joplin1,2021.2.3,59.96619405799938,
,0 0 0 0 0 0 0 0 1 0,1,categoryB,j,genfile2.csv,0,,,,,,,,,0,0,0,1,0,37,37,16,,,,,,,,,,,,,,,,,,,,,,,,j,1,0.08124737499929324,,,,,,,,,,,,,,,,,,,,,,,888,002,2021_Sep_10_1053,joplin1,2021.2.3,59.96619405799938,
,0 0 1 1 1 1 1 1 0 0,6,categoryA,f,genfile2.csv,1,,,,,,,,,0,0,0,1,0,38,38,15,,,,,,,,,,,,,,,,,,,,,,,,f,1,0.3589269169988256,,,,,,,,,,,,,,,,,,,,,,,888,002,2021_Sep_10_1053,joplin1,2021.2.3,59.96619405799938,
,0 0 0 0 0 0 1 0 0 0,1,categoryB,j,genfile2.csv,0,,,,,,,,,0,0,0,1,0,39,39,19,,,,,,,,,,,,,,,,,,,,,,,,j,1,0.4319497920005233,,,,,,,,,,,,,,,,,,,,,,,888,002,2021_Sep_10_1053,joplin1,2021.2.3,59.96619405799938,
,0 1 0 0 0 0 0 1 1 0,3,categoryB,j,genfile2.csv,0,,,,,,,,,0,0,0,1,0,40,40,28,,,,,,,,,,,,,,,,,,,,,,,,f,0,0.4476897500007908,,,,,,,,,,,,,,,,,,,,,,,888,002,2021_Sep_10_1053,joplin1,2021.2.3,59.96619405799938,
,0 0 0 1 0 1 0 1 0 0,3,categoryB,j,genfile2.csv,0,,,,,,,,,0,0,0,1,0,41,41,27,,,,,,,,,,,,,,,,,,,,,,,,j,1,0.2946490409995022,,,,,,,,,,,,,,,,,,,,,,,888,002,2021_Sep_10_1053,joplin1,2021.2.3,59.96619405799938,
,0 0 0 0 0 0 0 0 0 0,0,categoryB,j,genfile2.csv,0,,,,,,,,,0,0,0,1,0,42,42,0,,,,,,,,,,,,,,,,,,,,,,,,f,0,0.5132673329990212,,,,,,,,,,,,,,,,,,,,,,,888,002,2021_Sep_10_1053,joplin1,2021.2.3,59.96619405799938,
,0 0 0 0 0 1 0 0 1 0,2,categoryB,j,genfile2.csv,0,,,,,,,,,0,0,0,1,0,43,43,22,,,,,,,,,,,,,,,,,,,,,,,,f,0,0.4495084579994,,,,,,,,,,,,,,,,,,,,,,,888,002,2021_Sep_10_1053,joplin1,2021.2.3,59.96619405799938,
,1 0 1 1 1 1 1 1 1 1,9,categoryA,f,genfile2.csv,0,,,,,,,,,0,0,0,1,0,44,44,55,,,,,,,,,,,,,,,,,,,,,,,,f,1,0.27020312500098953,,,,,,,,,,,,,,,,,,,,,,,888,002,2021_Sep_10_1053,joplin1,2021.2.3,59.96619405799938,
,0 1 0 1 1 0 0 1 0 0,4,categoryB,j,genfile2.csv,0,,,,,,,,,0,0,0,1,0,45,45,31,,,,,,,,,,,,,,,,,,,,,,,,j,1,0.28085237500090443,,,,,,,,,,,,,,,,,,,,,,,888,002,2021_Sep_10_1053,joplin1,2021.2.3,59.96619405799938,
,1 1 1 1 0 1 1 1 0 0,7,categoryA,f,genfile2.csv,0,,,,,,,,,0,0,0,1,0,46,46,45,,,,,,,,,,,,,,,,,,,,,,,,f,1,0.45907604199965135,,,,,,,,,,,,,,,,,,,,,,,888,002,2021_Sep_10_1053,joplin1,2021.2.3,59.96619405799938,
,0 1 0 1 0 0 0 0 0 0,2,categoryB,j,genfile2.csv,0,,,,,,,,,0,0,0,1,0,47,47,25,,,,,,,,,,,,,,,,,,,,,,,,j,1,0.49945583299995633,,,,,,,,,,,,,,,,,,,,,,,888,002,2021_Sep_10_1053,joplin1,2021.2.3,59.96619405799938,
,1 1 1 0 1 1 1 1 1 1,9,categoryA,f,genfile2.csv,0,,,,,,,,,0,0,0,1,0,48,48,51,,,,,,,,,,,,,,,,,,,,,,,,f,1,0.2875259170014033,,,,,,,,,,,,,,,,,,,,,,,888,002,2021_Sep_10_1053,joplin1,2021.2.3,59.96619405799938,
,1 1 0 0 1 1 0 1 1 0,6,categoryA,f,genfile2.csv,0,,,,,,,,,0,0,0,1,0,49,49,40,,,,,,,,,,,,,,,,,,,,,,,,j,0,0.2635649170006218,,,,,,,,,,,,,,,,,,,,,,,888,002,2021_Sep_10_1053,joplin1,2021.2.3,59.96619405799938,
,0 1 0 1 1 1 1 0 1 1,7,categoryA,f,genfile2.csv,0,,,,,,,,,0,0,0,1,0,50,50,43,,,,,,,,,,,,,,,,,,,,,,,,j,0,0.18521604200032016,,,,,,,,,,,,,,,,,,,,,,,888,002,2021_Sep_10_1053,joplin1,2021.2.3,59.96619405799938,
,1 0 1 1 0 1 0 0 0 0,4,categoryB,j,genfile2.csv,0,,,,,,,,,0,0,0,1,0,51,51,32,,,,,,,,,,,,,,,,,,,,,,,,f,0,1.8949489169990557,,,,,,,,,,,,,,,,,,,,,,,888,002,2021_Sep_10_1053,joplin1,2021.2.3,59.96619405799938,
,0 0 1 0 0 0 0 0 0 0,1,categoryB,j,genfile2.csv,0,,,,,,,,,0,0,0,1,0,52,52,20,,,,,,,,,,,,,,,,,,,,,,,,f,0,0.34454091699990386,,,,,,,,,,,,,,,,,,,,,,,888,002,2021_Sep_10_1053,joplin1,2021.2.3,59.96619405799938,
,1 0 1 1 1 1 1 1 0 1,8,categoryA,f,genfile2.csv,1,,,,,,,,,0,0,0,1,0,53,53,10,,,,,,,,,,,,,,,,,,,,,,,,f,1,0.19184512499850825,,,,,,,,,,,,,,,,,,,,,,,888,002,2021_Sep_10_1053,joplin1,2021.2.3,59.96619405799938,
,0 0 1 0 0 0 0 0 1 1,3,categoryB,j,genfile2.csv,0,,,,,,,,,0,0,0,1,0,54,54,29,,,,,,,,,,,,,,,,,,,,,,,,j,1,0.33025929200084647,,,,,,,,,,,,,,,,,,,,,,,888,002,2021_Sep_10_1053,joplin1,2021.2.3,59.96619405799938,
,1 1 1 1 0 1 1 1 0 1,8,categoryA,f,genfile2.csv,0,,,,,,,,,0,0,0,1,0,55,55,48,,,,,,,,,,,,,,,,,,,,,,,,j,0,1.6135133749994566,,,,,,,,,,,,,,,,,,,,,,,888,002,2021_Sep_10_1053,joplin1,2021.2.3,59.96619405799938,
,,,,,genfile2.csv,,,,,,,,,,0,0,0,1,,,,,,,,,,,,,,,,,,space,4.098622833000263,,,,,,,,,,,,,,,,,,,,,,,,,,,,,,,,,,888,002,2021_Sep_10_1053,joplin1,2021.2.3,59.96619405799938,
,0 0 1 1 1 1 1 1 0 0,6,categoryA,f,genfile1.csv,1,,,,,,,,,0,1,1,0,0,0,0,15,,,,,,,,,,,,,,,,,,,,,,,,f,1,1.1460388750001584,,,,,,,,,,,,,,,,,,,,,,,888,002,2021_Sep_10_1053,joplin1,2021.2.3,59.96619405799938,
,0 0 0 1 1 1 0 1 0 0,4,categoryB,j,genfile1.csv,0,,,,,,,,,0,1,1,0,0,1,1,34,,,,,,,,,,,,,,,,,,,,,,,,j,1,0.9007026660001429,,,,,,,,,,,,,,,,,,,,,,,888,002,2021_Sep_10_1053,joplin1,2021.2.3,59.96619405799938,
,0 0 0 0 0 0 1 1 0 0,2,categoryB,j,genfile1.csv,0,,,,,,,,,0,1,1,0,0,2,2,22,,,,,,,,,,,,,,,,,,,,,,,,j,1,0.3931016250007815,,,,,,,,,,,,,,,,,,,,,,,888,002,2021_Sep_10_1053,joplin1,2021.2.3,59.96619405799938,
,0 1 1 0 0 0 0 1 0 0,3,categoryB,j,genfile1.csv,0,,,,,,,,,0,1,1,0,0,3,3,28,,,,,,,,,,,,,,,,,,,,,,,,f,0,0.23537525000028836,,,,,,,,,,,,,,,,,,,,,,,888,002,2021_Sep_10_1053,joplin1,2021.2.3,59.96619405799938,
,1 1 0 0 0 0 0 0 1 1,4,categoryB,j,genfile1.csv,1,,,,,,,,,0,1,1,0,0,4,4,8,,,,,,,,,,,,,,,,,,,,,,,,j,1,0.3801858340011677,,,,,,,,,,,,,,,,,,,,,,,888,002,2021_Sep_10_1053,joplin1,2021.2.3,59.96619405799938,
,1 1 1 1 1 1 1 1 1 0,9,categoryA,f,genfile1.csv,0,,,,,,,,,0,1,1,0,0,5,5,52,,,,,,,,,,,,,,,,,,,,,,,,f,1,0.736572249999881,,,,,,,,,,,,,,,,,,,,,,,888,002,2021_Sep_10_1053,joplin1,2021.2.3,59.96619405799938,
,1 0 0 1 1 1 1 1 1 0,7,categoryA,f,genfile1.csv,0,,,,,,,,,0,1,1,0,0,6,6,45,,,,,,,,,,,,,,,,,,,,,,,,f,1,0.3383835420008836,,,,,,,,,,,,,,,,,,,,,,,888,002,2021_Sep_10_1053,joplin1,2021.2.3,59.96619405799938,
,0 0 1 0 1 1 0 1 0 0,4,categoryB,j,genfile1.csv,1,,,,,,,,,0,1,1,0,0,7,7,4,,,,,,,,,,,,,,,,,,,,,,,,f,0,1.6225291669998114,,,,,,,,,,,,,,,,,,,,,,,888,002,2021_Sep_10_1053,joplin1,2021.2.3,59.96619405799938,
,0 1 1 1 1 1 1 1 1 1,9,categoryA,f,genfile1.csv,0,,,,,,,,,0,1,1,0,0,8,8,53,,,,,,,,,,,,,,,,,,,,,,,,f,1,1.8791360410014022,,,,,,,,,,,,,,,,,,,,,,,888,002,2021_Sep_10_1053,joplin1,2021.2.3,59.96619405799938,
,0 0 0 1 0 1 0 0 0 0,2,categoryB,j,genfile1.csv,0,,,,,,,,,0,1,1,0,0,9,9,25,,,,,,,,,,,,,,,,,,,,,,,,j,1,0.2807604160007031,,,,,,,,,,,,,,,,,,,,,,,888,002,2021_Sep_10_1053,joplin1,2021.2.3,59.96619405799938,
,1 1 1 0 1 1 0 1 1 1,8,categoryA,f,genfile1.csv,1,,,,,,,,,0,1,1,0,0,10,10,13,,,,,,,,,,,,,,,,,,,,,,,,f,1,0.3141699170009815,,,,,,,,,,,,,,,,,,,,,,,888,002,2021_Sep_10_1053,joplin1,2021.2.3,59.96619405799938,
,0 0 1 0 0 0 0 1 0 0,2,categoryB,j,genfile1.csv,1,,,,,,,,,0,1,1,0,0,11,11,7,,,,,,,,,,,,,,,,,,,,,,,,None,0,,,,,,,,,,,,,,,,,,,,,,,,888,002,2021_Sep_10_1053,joplin1,2021.2.3,59.96619405799938,
,0 0 0 0 0 0 0 1 0 0,1,categoryB,j,genfile1.csv,0,,,,,,,,,0,1,1,0,0,12,12,18,,,,,,,,,,,,,,,,,,,,,,,,j,1,0.20250441700045485,,,,,,,,,,,,,,,,,,,,,,,888,002,2021_Sep_10_1053,joplin1,2021.2.3,59.96619405799938,
,0 0 1 1 1 1 1 1 1 1,8,categoryA,f,genfile1.csv,0,,,,,,,,,0,1,1,0,0,13,13,46,,,,,,,,,,,,,,,,,,,,,,,,f,1,1.0175072909987648,,,,,,,,,,,,,,,,,,,,,,,888,002,2021_Sep_10_1053,joplin1,2021.2.3,59.96619405799938,
,0 0 0 0 0 0 0 0 0 1,1,categoryB,j,genfile1.csv,0,,,,,,,,,0,1,1,0,0,14,14,20,,,,,,,,,,,,,,,,,,,,,,,,j,1,0.2956682079984603,,,,,,,,,,,,,,,,,,,,,,,888,002,2021_Sep_10_1053,joplin1,2021.2.3,59.96619405799938,
,0 1 1 1 1 0 0 0 1 1,6,categoryA,f,genfile1.csv,0,,,,,,,,,0,1,1,0,0,15,15,37,,,,,,,,,,,,,,,,,,,,,,,,f,1,0.508945916999437,,,,,,,,,,,,,,,,,,,,,,,888,002,2021_Sep_10_1053,joplin1,2021.2.3,59.96619405799938,
,0 0 0 1 1 1 1 0 0 0,4,categoryB,j,genfile1.csv,1,,,,,,,,,0,1,1,0,0,16,16,5,,,,,,,,,,,,,,,,,,,,,,,,j,1,0.3535579590006819,,,,,,,,,,,,,,,,,,,,,,,888,002,2021_Sep_10_1053,joplin1,2021.2.3,59.96619405799938,
,1 1 1 0 0 0 0 1 1 1,6,categoryA,f,genfile1.csv,1,,,,,,,,,0,1,1,0,0,17,17,12,,,,,,,,,,,,,,,,,,,,,,,,f,1,0.2969969170007971,,,,,,,,,,,,,,,,,,,,,,,888,002,2021_Sep_10_1053,joplin1,2021.2.3,59.96619405799938,
,1 1 0 0 0 1 0 1 1 1,6,categoryA,f,genfile1.csv,0,,,,,,,,,0,1,1,0,0,18,18,36,,,,,,,,,,,,,,,,,,,,,,,,j,0,0.3133805409997876,,,,,,,,,,,,,,,,,,,,,,,888,002,2021_Sep_10_1053,joplin1,2021.2.3,59.96619405799938,
,0 1 0 0 0 0 0 0 1 0,2,categoryB,j,genfile1.csv,1,,,,,,,,,0,1,1,0,0,19,19,3,,,,,,,,,,,,,,,,,,,,,,,,j,1,0.24836791699999594,,,,,,,,,,,,,,,,,,,,,,,888,002,2021_Sep_10_1053,joplin1,2021.2.3,59.96619405799938,
,1 1 0 1 1 1 1 0 1 1,8,categoryA,f,genfile1.csv,1,,,,,,,,,0,1,1,0,0,20,20,14,,,,,,,,,,,,,,,,,,,,,,,,j,0,0.21924445900003775,,,,,,,,,,,,,,,,,,,,,,,888,002,2021_Sep_10_1053,joplin1,2021.2.3,59.96619405799938,
,1 0 1 1 1 1 1 1 0 1,8,categoryA,f,genfile1.csv,1,,,,,,,,,0,1,1,0,0,21,21,10,,,,,,,,,,,,,,,,,,,,,,,,f,1,0.530133541999021,,,,,,,,,,,,,,,,,,,,,,,888,002,2021_Sep_10_1053,joplin1,2021.2.3,59.96619405799938,
,1 0 0 1 0 1 0 0 0 0,3,categoryB,j,genfile1.csv,0,,,,,,,,,0,1,1,0,0,22,22,27,,,,,,,,,,,,,,,,,,,,,,,,j,1,0.19098924999889277,,,,,,,,,,,,,,,,,,,,,,,888,002,2021_Sep_10_1053,joplin1,2021.2.3,59.96619405799938,
,1 1 1 1 0 1 0 1 1 1,8,categoryA,f,genfile1.csv,0,,,,,,,,,0,1,1,0,0,23,23,47,,,,,,,,,,,,,,,,,,,,,,,,f,1,0.8515613750005286,,,,,,,,,,,,,,,,,,,,,,,888,002,2021_Sep_10_1053,joplin1,2021.2.3,59.96619405799938,
,1 0 0 0 0 0 0 0 0 1,2,categoryB,j,genfile1.csv,1,,,,,,,,,0,1,1,0,0,24,24,2,,,,,,,,,,,,,,,,,,,,,,,,j,1,0.34211408299961477,,,,,,,,,,,,,,,,,,,,,,,888,002,2021_Sep_10_1053,joplin1,2021.2.3,59.96619405799938,
,1 1 1 1 0 1 0 0 1 1,7,categoryA,f,genfile1.csv,0,,,,,,,,,0,1,1,0,0,25,25,44,,,,,,,,,,,,,,,,,,,,,,,,f,1,0.27377270800025144,,,,,,,,,,,,,,,,,,,,,,,888,002,2021_Sep_10_1053,joplin1,2021.2.3,59.96619405799938,
,0 1 1 1 0 0 0 0 0 0,3,categoryB,j,genfile1.csv,0,,,,,,,,,0,1,1,0,0,26,26,30,,,,,,,,,,,,,,,,,,,,,,,,j,1,0.49646812500031956,,,,,,,,,,,,,,,,,,,,,,,888,002,2021_Sep_10_1053,joplin1,2021.2.3,59.96619405799938,
,0 0 1 1 0 0 0 0 0 0,2,categoryB,j,genfile1.csv,0,,,,,,,,,0,1,1,0,0,27,27,24,,,,,,,,,,,,,,,,,,,,,,,,f,0,0.6105814999991708,,,,,,,,,,,,,,,,,,,,,,,888,002,2021_Sep_10_1053,joplin1,2021.2.3,59.96619405799938,
,1 0 0 1 0 1 1 0 1 1,6,categoryA,f,genfile1.csv,0,,,,,,,,,0,1,1,0,0,28,28,39,,,,,,,,,,,,,,,,,,,,,,,,f,1,0.4664544579991343,,,,,,,,,,,,,,,,,,,,,,,888,002,2021_Sep_10_1053,joplin1,2021.2.3,59.96619405799938,
,1 0 0 0 0 0 1 0 0 0,2,categoryB,j,genfile1.csv,0,,,,,,,,,0,1,1,0,0,29,29,23,,,,,,,,,,,,,,,,,,,,,,,,j,1,0.42312200000014855,,,,,,,,,,,,,,,,,,,,,,,888,002,2021_Sep_10_1053,joplin1,2021.2.3,59.96619405799938,
,1 1 1 1 0 1 1 1 1 1,9,categoryA,f,genfile1.csv,0,,,,,,,,,0,1,1,0,0,30,30,51,,,,,,,,,,,,,,,,,,,,,,,,f,1,0.33636370900057955,,,,,,,,,,,,,,,,,,,,,,,888,002,2021_Sep_10_1053,joplin1,2021.2.3,59.96619405799938,
,1 0 1 1 1 1 0 1 1 0,7,categoryA,f,genfile1.csv,0,,,,,,,,,0,1,1,0,0,31,31,42,,,,,,,,,,,,,,,,,,,,,,,,j,0,0.289832792001107,,,,,,,,,,,,,,,,,,,,,,,888,002,2021_Sep_10_1053,joplin1,2021.2.3,59.96619405799938,
,1 1 1 1 0 1 1 1 1 0,8,categoryA,f,genfile1.csv,0,,,,,,,,,0,1,1,0,0,32,32,50,,,,,,,,,,,,,,,,,,,,,,,,j,0,0.4318279580002127,,,,,,,,,,,,,,,,,,,,,,,888,002,2021_Sep_10_1053,joplin1,2021.2.3,59.96619405799938,
,1 0 1 1 1 1 1 1 1 0,8,categoryA,f,genfile1.csv,0,,,,,,,,,0,1,1,0,0,33,33,49,,,,,,,,,,,,,,,,,,,,,,,,j,0,0.9060136659991258,,,,,,,,,,,,,,,,,,,,,,,888,002,2021_Sep_10_1053,joplin1,2021.2.3,59.96619405799938,
,0 0 0 0 0 0 0 0 0 0,0,categoryB,j,genfile1.csv,0,,,,,,,,,0,1,1,0,0,34,34,0,,,,,,,,,,,,,,,,,,,,,,,,j,1,0.2805348750007397,,,,,,,,,,,,,,,,,,,,,,,888,002,2021_Sep_10_1053,joplin1,2021.2.3,59.96619405799938,
,0 0 1 0 0 1 0 0 1 0,3,categoryB,j,genfile1.csv,0,,,,,,,,,0,1,1,0,0,35,35,26,,,,,,,,,,,,,,,,,,,,,,,,f,0,1.2577968339992367,,,,,,,,,,,,,,,,,,,,,,,888,002,2021_Sep_10_1053,joplin1,2021.2.3,59.96619405799938,
,0 1 0 0 0 0 0 0 0 0,1,categoryB,j,genfile1.csv,0,,,,,,,,,0,1,1,0,0,36,36,16,,,,,,,,,,,,,,,,,,,,,,,,j,1,0.9169585829986318,,,,,,,,,,,,,,,,,,,,,,,888,002,2021_Sep_10_1053,joplin1,2021.2.3,59.96619405799938,
,1 1 1 1 1 1 1 1 0 0,8,categoryA,f,genfile1.csv,0,,,,,,,,,0,1,1,0,0,37,37,48,,,,,,,,,,,,,,,,,,,,,,,,f,1,0.242399500000829,,,,,,,,,,,,,,,,,,,,,,,888,002,2021_Sep_10_1053,joplin1,2021.2.3,59.96619405799938,
,1 0 1 1 0 1 1 0 1 1,7,categoryA,f,genfile1.csv,0,,,,,,,,,0,1,1,0,0,38,38,41,,,,,,,,,,,,,,,,,,,,,,,,f,1,1.6868169579993264,,,,,,,,,,,,,,,,,,,,,,,888,002,2021_Sep_10_1053,joplin1,2021.2.3,59.96619405799938,
,1 1 0 1 0 0 1 0 1 1,6,categoryA,f,genfile1.csv,1,,,,,,,,,0,1,1,0,0,39,39,11,,,,,,,,,,,,,,,,,,,,,,,,j,0,0.2711897500012128,,,,,,,,,,,,,,,,,,,,,,,888,002,2021_Sep_10_1053,joplin1,2021.2.3,59.96619405799938,
,0 0 1 1 0 1 0 1 1 1,6,categoryA,f,genfile1.csv,0,,,,,,,,,0,1,1,0,0,40,40,40,,,,,,,,,,,,,,,,,,,,,,,,f,1,0.38039054199907696,,,,,,,,,,,,,,,,,,,,,,,888,002,2021_Sep_10_1053,joplin1,2021.2.3,59.96619405799938,
,0 0 0 1 0 0 1 0 0 0,2,categoryB,j,genfile1.csv,1,,,,,,,,,0,1,1,0,0,41,41,6,,,,,,,,,,,,,,,,,,,,,,,,j,1,0.32797841700084973,,,,,,,,,,,,,,,,,,,,,,,888,002,2021_Sep_10_1053,joplin1,2021.2.3,59.96619405799938,
,1 0 0 0 0 0 0 0 0 0,1,categoryB,j,genfile1.csv,0,,,,,,,,,0,1,1,0,0,42,42,19,,,,,,,,,,,,,,,,,,,,,,,,j,1,1.8317129999995814,,,,,,,,,,,,,,,,,,,,,,,888,002,2021_Sep_10_1053,joplin1,2021.2.3,59.96619405799938,
,0 0 0 0 1 0 0 0 0 0,1,categoryB,j,genfile1.csv,0,,,,,,,,,0,1,1,0,0,43,43,17,,,,,,,,,,,,,,,,,,,,,,,,j,1,0.4083031660011329,,,,,,,,,,,,,,,,,,,,,,,888,002,2021_Sep_10_1053,joplin1,2021.2.3,59.96619405799938,
,1 1 1 1 0 1 0 0 0 1,6,categoryA,f,genfile1.csv,0,,,,,,,,,0,1,1,0,0,44,44,38,,,,,,,,,,,,,,,,,,,,,,,,f,1,0.26716674999988754,,,,,,,,,,,,,,,,,,,,,,,888,002,2021_Sep_10_1053,joplin1,2021.2.3,59.96619405799938,
,1 1 1 1 1 1 1 0 1 1,9,categoryA,f,genfile1.csv,0,,,,,,,,,0,1,1,0,0,45,45,54,,,,,,,,,,,,,,,,,,,,,,,,f,1,0.617432708000706,,,,,,,,,,,,,,,,,,,,,,,888,002,2021_Sep_10_1053,joplin1,2021.2.3,59.96619405799938,
,0 0 1 0 0 0 1 1 1 0,4,categoryB,j,genfile1.csv,0,,,,,,,,,0,1,1,0,0,46,46,35,,,,,,,,,,,,,,,,,,,,,,,,f,0,0.7151967080008035,,,,,,,,,,,,,,,,,,,,,,,888,002,2021_Sep_10_1053,joplin1,2021.2.3,59.96619405799938,
,1 0 1 1 1 0 0 0 0 0,4,categoryB,j,genfile1.csv,0,,,,,,,,,0,1,1,0,0,47,47,32,,,,,,,,,,,,,,,,,,,,,,,,j,1,0.351098416998866,,,,,,,,,,,,,,,,,,,,,,,888,002,2021_Sep_10_1053,joplin1,2021.2.3,59.96619405799938,
,1 1 0 1 1 1 1 1 1 1,9,categoryA,f,genfile1.csv,0,,,,,,,,,0,1,1,0,0,48,48,55,,,,,,,,,,,,,,,,,,,,,,,,f,1,0.36385225000049104,,,,,,,,,,,,,,,,,,,,,,,888,002,2021_Sep_10_1053,joplin1,2021.2.3,59.96619405799938,
,1 1 0 1 0 1 0 0 0 0,4,categoryB,j,genfile1.csv,0,,,,,,,,,0,1,1,0,0,49,49,33,,,,,,,,,,,,,,,,,,,,,,,,j,1,0.24285750000126427,,,,,,,,,,,,,,,,,,,,,,,888,002,2021_Sep_10_1053,joplin1,2021.2.3,59.96619405799938,
,1 1 1 1 1 1 1 1 1 1,10,categoryA,f,genfile1.csv,0,,,,,,,,,0,1,1,0,0,50,50,1,,,,,,,,,,,,,,,,,,,,,,,,f,1,0.017386999999871477,,,,,,,,,,,,,,,,,,,,,,,888,002,2021_Sep_10_1053,joplin1,2021.2.3,59.96619405799938,
,0 1 0 0 1 0 0 0 0 1,3,categoryB,j,genfile1.csv,0,,,,,,,,,0,1,1,0,0,51,51,29,,,,,,,,,,,,,,,,,,,,,,,,j,1,0.009372500000608852,,,,,,,,,,,,,,,,,,,,,,,888,002,2021_Sep_10_1053,joplin1,2021.2.3,59.96619405799938,
,0 1 1 1 1 1 1 1 1 0,8,categoryA,f,genfile1.csv,1,,,,,,,,,0,1,1,0,0,52,52,9,,,,,,,,,,,,,,,,,,,,,,,,f,1,0.4796864170002664,,,,,,,,,,,,,,,,,,,,,,,888,002,2021_Sep_10_1053,joplin1,2021.2.3,59.96619405799938,
,1 1 1 0 1 0 1 1 1 0,7,categoryA,f,genfile1.csv,0,,,,,,,,,0,1,1,0,0,53,53,43,,,,,,,,,,,,,,,,,,,,,,,,f,1,0.37876487499852374,,,,,,,,,,,,,,,,,,,,,,,888,002,2021_Sep_10_1053,joplin1,2021.2.3,59.96619405799938,
,0 0 0 1 0 1 1 0 0 1,4,categoryB,j,genfile1.csv,0,,,,,,,,,0,1,1,0,0,54,54,31,,,,,,,,,,,,,,,,,,,,,,,,j,1,0.5546397090001847,,,,,,,,,,,,,,,,,,,,,,,888,002,2021_Sep_10_1053,joplin1,2021.2.3,59.96619405799938,
,0 0 0 1 0 0 0 1 0 0,2,categoryB,j,genfile1.csv,0,,,,,,,,,0,1,1,0,0,55,55,21,,,,,,,,,,,,,,,,,,,,,,,,j,1,0.28417649999937566,,,,,,,,,,,,,,,,,,,,,,,888,002,2021_Sep_10_1053,joplin1,2021.2.3,59.96619405799938,
,,,,,genfile1.csv,,,,,,,,,,0,1,1,0,,,,,,,,,,,,,,,,,,space,3.553891833000307,,,,,,,,,,,,,,,,,,,,,,,,,,,,,,,,,,888,002,2021_Sep_10_1053,joplin1,2021.2.3,59.96619405799938,
,,,,,,,,,,,,,,,,,,,,,,,,,,,,,,,,,,,,,,,,,,,,,,,,,space,3.619883708000998,,,,,,,,,,,,,,,,,,,,,888,002,2021_Sep_10_1053,joplin1,2021.2.3,59.96619405799938,
,,,,,,,,,,,,,,,,,,,,,,,,,,,,,,,,,,,,,,,,,,,,,,,,,,,return,24.72300791700036,,,,,,,,,,,,,,,,,,,888,002,2021_Sep_10_1053,joplin1,2021.2.3,59.96619405799938,
,,,,,,,,,,,,,,,,,,,,,,,,,,,,,,,,,,,,,,,,,,,,,,,,,,,,,0.7,radio,0.3,Are you Hispanic/Latino?,0,None,None,no,2.1881292079997365,,,,,,,,,,888,002,2021_Sep_10_1053,joplin1,2021.2.3,59.96619405799938,
,,,,,,,,,,,,,,,,,,,,,,,,,,,,,,,,,,,,,,,,,,,,,,,,,,,,,0.7,radio,0.3,Are you an American Indian or Alaska Native?,1,None,None,no,3.5106989169998997,,,,,,,,,,888,002,2021_Sep_10_1053,joplin1,2021.2.3,59.96619405799938,
,,,,,,,,,,,,,,,,,,,,,,,,,,,,,,,,,,,,,,,,,,,,,,,,,,,,,0.7,radio,0.3,Are you Asian?,2,None,None,no,8.234556166999027,,,,,,,,,,888,002,2021_Sep_10_1053,joplin1,2021.2.3,59.96619405799938,
,,,,,,,,,,,,,,,,,,,,,,,,,,,,,,,,,,,,,,,,,,,,,,,,,,,,,0.7,radio,0.3,Are you Black or African American?,3,None,None,no,9.137570417000461,,,,,,,,,,888,002,2021_Sep_10_1053,joplin1,2021.2.3,59.96619405799938,
,,,,,,,,,,,,,,,,,,,,,,,,,,,,,,,,,,,,,,,,,,,,,,,,,,,,,0.7,radio,0.3,Are you a Native Hawaiian or other Pacific Islander?,4,None,None,no,6.956600666999293,,,,,,,,,,888,002,2021_Sep_10_1053,joplin1,2021.2.3,59.96619405799938,
,,,,,,,,,,,,,,,,,,,,,,,,,,,,,,,,,,,,,,,,,,,,,,,,,,,,,0.7,radio,0.3,Are you White?,5,None,None,yes,7.752833208998709,,,,,,,,,,888,002,2021_Sep_10_1053,joplin1,2021.2.3,59.96619405799938,
,,,,,,,,,,,,,,,,,,,,,,,,,,,,,,,,,,,,,,,,,,,,,,,,,,,,,0.85,radio,0.3,"Do you have any history of neurological issues such as stroke, head injury or a neurodegenerative disorder?",6,None,None,no,10.351564000000508,,,,,,,,,,888,002,2021_Sep_10_1053,joplin1,2021.2.3,59.96619405799938,
,,,,,,,,,,,,,,,,,,,,,,,,,,,,,,,,,,,,,,,,,,,,,,,,,,,,,,,,,,,,,,return,25.12466591699922,,,,,,,,888,002,2021_Sep_10_1053,joplin1,2021.2.3,59.96619405799938,
,,,,,,,,,,,,,,,,,,,,,,,,,,,,,,,,,,,,,,,,,,,,,,,,,,,,,,,,,,,,,,,,return,6.227673875000619,,,,,,888,002,2021_Sep_10_1053,joplin1,2021.2.3,59.96619405799938,
,,,,,,,,,,,,,,,,,,,,,,,,,,,,,,,,,,,,,,,,,,,,,,,,,,,,,,,,,,,,,,,,,,woman,20,y,2.3324766250007087,,888,002,2021_Sep_10_1053,joplin1,2021.2.3,59.96619405799938,
,,,,,,,,,,,,,,,,,,,,,,,,,,,,,,,,,,,,,,,,,,,,,,,,,,,,,,,,,,,,,,,,,,,,,,0,,,,,,,
