train_set,stim_id,sums_feat,category,correct_key,gen_file,train_item,train_runs.thisRepN,train_runs.thisTrialN,train_runs.thisN,train_runs.thisIndex,train_trials.thisRepN,train_trials.thisTrialN,train_trials.thisN,train_trials.thisIndex,test_runs.thisRepN,test_runs.thisTrialN,test_runs.thisN,test_runs.thisIndex,test_trials.thisRepN,test_trials.thisTrialN,test_trials.thisN,test_trials.thisIndex,welcome_key.keys,welcome_key.rt,welcome_key.started,welcome_key.stopped,train_inst1_key.keys,train_inst1_key.rt,train_inst2_key.keys,train_inst2_key.rt,train_begin_key.keys,train_begin_key.rt,train_key.keys,train_key.corr,train_key.rt,break_key.keys,break_key.rt,key_resp.keys,key_resp.rt,test_inst1_key.keys,test_inst1_key.rt,test_inst2_key.keys,test_inst2_key.rt,test_begin_key.keys,test_begin_key.rt,test_key.keys,test_key.corr,test_key.rt,test_end_key.keys,demo_inst1_key.keys,form.questionWidth,form.type,form.respWidth,form.itemText,form.index,form.font,form.markerColor,form.response,form.rt,form_key.keys,demo_inst2_key.keys,gender_string,age_string,demo4_key.keys,typedWord,participant,session,date,expName,psychopyVersion,frameRate,
,,,,,,,,,,,,,,,,,,,,,,,space,39.76895558399997,13.309604832999867,None,,,,,,,,,,,,,,,,,,,,,,,,,,,,,,,,,,,,,,,,999,001,2021_Sep_03_1251,joplin1,2021.2.3,60.25658773518168,
,,,,,,,,,,,,,,,,,,,,,,,,,,,f,12.01934766699992,,,,,,,,,,,,,,,,,,,,,,,,,,,,,,,,,,,,,,999,001,2021_Sep_03_1251,joplin1,2021.2.3,60.25658773518168,
,,,,,,,,,,,,,,,,,,,,,,,,,,,,,space,6.798141083000019,,,,,,,,,,,,,,,,,,,,,,,,,,,,,,,,,,,,999,001,2021_Sep_03_1251,joplin1,2021.2.3,60.25658773518168,
,,,,,,,,,,,,,,,,,,,,,,,,,,,,,,,space,26.333202249999886,,,,,,,,,,,,,,,,,,,,,,,,,,,,,,,,,,999,001,2021_Sep_03_1251,joplin1,2021.2.3,60.25658773518168,
_train_cond.csv,0 1 0 0 0 0 0 0 1 0,2,categoryB,j,,,0,0,0,0,0,0,0,1,,,,,,,,,,,,,,,,,,,None,0,,,,,,,,,,,,,,,,,,,,,,,,,,,,,,,,999,001,2021_Sep_03_1251,joplin1,2021.2.3,60.25658773518168,
_train_cond.csv,1 1 0 1 0 0 1 0 1 1,6,categoryA,f,,,0,0,0,0,0,1,1,9,,,,,,,,,,,,,,,,,,,f,1,0.8508090000000266,,,,,,,,,,,,,,,,,,,,,,,,,,,,,,,999,001,2021_Sep_03_1251,joplin1,2021.2.3,60.25658773518168,
_train_cond.csv,0 0 1 0 0 0 0 1 0 0,2,categoryB,j,,,0,0,0,0,0,2,2,5,,,,,,,,,,,,,,,,,,,j,1,0.09297641700004533,,,,,,,,,,,,,,,,,,,,,,,,,,,,,,,999,001,2021_Sep_03_1251,joplin1,2021.2.3,60.25658773518168,
_train_cond.csv,1 0 1 1 1 1 1 1 0 1,8,categoryA,f,,,0,0,0,0,0,3,3,8,,,,,,,,,,,,,,,,,,,f,1,0.8898005000000921,,,,,,,,,,,,,,,,,,,,,,,,,,,,,,,999,001,2021_Sep_03_1251,joplin1,2021.2.3,60.25658773518168,
_train_cond.csv,0 0 1 0 1 1 0 1 0 0,4,categoryB,j,,,0,0,0,0,0,4,4,2,,,,,,,,,,,,,,,,,,,f,0,1.2020046250001997,,,,,,,,,,,,,,,,,,,,,,,,,,,,,,,999,001,2021_Sep_03_1251,joplin1,2021.2.3,60.25658773518168,
_train_cond.csv,1 1 1 0 0 0 0 1 1 1,6,categoryA,f,,,0,0,0,0,0,5,5,10,,,,,,,,,,,,,,,,,,,f,1,1.133952249999993,,,,,,,,,,,,,,,,,,,,,,,,,,,,,,,999,001,2021_Sep_03_1251,joplin1,2021.2.3,60.25658773518168,
_train_cond.csv,1 0 0 0 0 0 0 0 0 1,2,categoryB,j,,,0,0,0,0,0,6,6,0,,,,,,,,,,,,,,,,,,,f,0,0.10876587500001733,,,,,,,,,,,,,,,,,,,,,,,,,,,,,,,999,001,2021_Sep_03_1251,joplin1,2021.2.3,60.25658773518168,
_train_cond.csv,0 0 0 1 1 1 1 0 0 0,4,categoryB,j,,,0,0,0,0,0,7,7,3,,,,,,,,,,,,,,,,,,,j,1,0.6605047909999939,,,,,,,,,,,,,,,,,,,,,,,,,,,,,,,999,001,2021_Sep_03_1251,joplin1,2021.2.3,60.25658773518168,
_train_cond.csv,1 1 1 0 1 1 0 1 1 1,8,categoryA,f,,,0,0,0,0,0,8,8,11,,,,,,,,,,,,,,,,,,,f,1,0.03615979099981814,,,,,,,,,,,,,,,,,,,,,,,,,,,,,,,999,001,2021_Sep_03_1251,joplin1,2021.2.3,60.25658773518168,
_train_cond.csv,0 1 1 1 1 1 1 1 1 0,8,categoryA,f,,,0,0,0,0,0,9,9,7,,,,,,,,,,,,,,,,,,,j,0,0.28486437499987005,,,,,,,,,,,,,,,,,,,,,,,,,,,,,,,999,001,2021_Sep_03_1251,joplin1,2021.2.3,60.25658773518168,
_train_cond.csv,1 1 0 0 0 0 0 0 1 1,4,categoryB,j,,,0,0,0,0,0,10,10,6,,,,,,,,,,,,,,,,,,,f,0,0.484032667000065,,,,,,,,,,,,,,,,,,,,,,,,,,,,,,,999,001,2021_Sep_03_1251,joplin1,2021.2.3,60.25658773518168,
_train_cond.csv,0 0 1 1 1 1 1 1 0 0,6,categoryA,f,,,0,0,0,0,0,11,11,13,,,,,,,,,,,,,,,,,,,j,0,0.17296966599997177,,,,,,,,,,,,,,,,,,,,,,,,,,,,,,,999,001,2021_Sep_03_1251,joplin1,2021.2.3,60.25658773518168,
_train_cond.csv,1 1 0 1 1 1 1 0 1 1,8,categoryA,f,,,0,0,0,0,0,12,12,12,,,,,,,,,,,,,,,,,,,f,1,0.12971108299984735,,,,,,,,,,,,,,,,,,,,,,,,,,,,,,,999,001,2021_Sep_03_1251,joplin1,2021.2.3,60.25658773518168,
_train_cond.csv,0 0 0 1 0 0 1 0 0 0,2,categoryB,j,,,0,0,0,0,0,13,13,4,,,,,,,,,,,,,,,,,,,j,1,0.21556650000002264,,,,,,,,,,,,,,,,,,,,,,,,,,,,,,,999,001,2021_Sep_03_1251,joplin1,2021.2.3,60.25658773518168,
_train_cond.csv,0 1 1 1 1 1 1 1 1 0,8,categoryA,f,,,0,0,0,0,1,0,14,7,,,,,,,,,,,,,,,,,,,f,1,0.9812686249999842,,,,,,,,,,,,,,,,,,,,,,,,,,,,,,,999,001,2021_Sep_03_1251,joplin1,2021.2.3,60.25658773518168,
_train_cond.csv,1 1 0 1 1 1 1 0 1 1,8,categoryA,f,,,0,0,0,0,1,1,15,12,,,,,,,,,,,,,,,,,,,f,1,0.25201654200009216,,,,,,,,,,,,,,,,,,,,,,,,,,,,,,,999,001,2021_Sep_03_1251,joplin1,2021.2.3,60.25658773518168,
_train_cond.csv,1 0 1 1 1 1 1 1 0 1,8,categoryA,f,,,0,0,0,0,1,2,16,8,,,,,,,,,,,,,,,,,,,j,0,0.8064774580000176,,,,,,,,,,,,,,,,,,,,,,,,,,,,,,,999,001,2021_Sep_03_1251,joplin1,2021.2.3,60.25658773518168,
_train_cond.csv,0 0 1 0 0 0 0 1 0 0,2,categoryB,j,,,0,0,0,0,1,3,17,5,,,,,,,,,,,,,,,,,,,j,1,0.013199875000054817,,,,,,,,,,,,,,,,,,,,,,,,,,,,,,,999,001,2021_Sep_03_1251,joplin1,2021.2.3,60.25658773518168,
_train_cond.csv,0 0 0 1 0 0 1 0 0 0,2,categoryB,j,,,0,0,0,0,1,4,18,4,,,,,,,,,,,,,,,,,,,j,1,1.241402583000081,,,,,,,,,,,,,,,,,,,,,,,,,,,,,,,999,001,2021_Sep_03_1251,joplin1,2021.2.3,60.25658773518168,
_train_cond.csv,1 1 0 0 0 0 0 0 1 1,4,categoryB,j,,,0,0,0,0,1,5,19,6,,,,,,,,,,,,,,,,,,,f,0,0.7583879159999469,,,,,,,,,,,,,,,,,,,,,,,,,,,,,,,999,001,2021_Sep_03_1251,joplin1,2021.2.3,60.25658773518168,
_train_cond.csv,1 1 1 0 1 1 0 1 1 1,8,categoryA,f,,,0,0,0,0,1,6,20,11,,,,,,,,,,,,,,,,,,,f,1,0.4696801669999786,,,,,,,,,,,,,,,,,,,,,,,,,,,,,,,999,001,2021_Sep_03_1251,joplin1,2021.2.3,60.25658773518168,
_train_cond.csv,1 1 0 1 0 0 1 0 1 1,6,categoryA,f,,,0,0,0,0,1,7,21,9,,,,,,,,,,,,,,,,,,,j,0,0.039986750000025495,,,,,,,,,,,,,,,,,,,,,,,,,,,,,,,999,001,2021_Sep_03_1251,joplin1,2021.2.3,60.25658773518168,
_train_cond.csv,1 0 0 0 0 0 0 0 0 1,2,categoryB,j,,,0,0,0,0,1,8,22,0,,,,,,,,,,,,,,,,,,,j,1,0.18119458399996802,,,,,,,,,,,,,,,,,,,,,,,,,,,,,,,999,001,2021_Sep_03_1251,joplin1,2021.2.3,60.25658773518168,
_train_cond.csv,0 0 1 0 1 1 0 1 0 0,4,categoryB,j,,,0,0,0,0,1,9,23,2,,,,,,,,,,,,,,,,,,,j,1,0.21839041599992015,,,,,,,,,,,,,,,,,,,,,,,,,,,,,,,999,001,2021_Sep_03_1251,joplin1,2021.2.3,60.25658773518168,
_train_cond.csv,0 1 0 0 0 0 0 0 1 0,2,categoryB,j,,,0,0,0,0,1,10,24,1,,,,,,,,,,,,,,,,,,,f,0,0.85445254199999,,,,,,,,,,,,,,,,,,,,,,,,,,,,,,,999,001,2021_Sep_03_1251,joplin1,2021.2.3,60.25658773518168,
_train_cond.csv,0 0 1 1 1 1 1 1 0 0,6,categoryA,f,,,0,0,0,0,1,11,25,13,,,,,,,,,,,,,,,,,,,j,0,0.15403237500004252,,,,,,,,,,,,,,,,,,,,,,,,,,,,,,,999,001,2021_Sep_03_1251,joplin1,2021.2.3,60.25658773518168,
_train_cond.csv,1 1 1 0 0 0 0 1 1 1,6,categoryA,f,,,0,0,0,0,1,12,26,10,,,,,,,,,,,,,,,,,,,f,1,0.9142481669998688,,,,,,,,,,,,,,,,,,,,,,,,,,,,,,,999,001,2021_Sep_03_1251,joplin1,2021.2.3,60.25658773518168,
_train_cond.csv,0 0 0 1 1 1 1 0 0 0,4,categoryB,j,,,0,0,0,0,1,13,27,3,,,,,,,,,,,,,,,,,,,j,1,0.04280329199991684,,,,,,,,,,,,,,,,,,,,,,,,,,,,,,,999,001,2021_Sep_03_1251,joplin1,2021.2.3,60.25658773518168,
_train_cond.csv,1 1 0 0 0 0 0 0 1 1,4,categoryB,j,,,0,0,0,0,2,0,28,6,,,,,,,,,,,,,,,,,,,f,0,0.3500813749999452,,,,,,,,,,,,,,,,,,,,,,,,,,,,,,,999,001,2021_Sep_03_1251,joplin1,2021.2.3,60.25658773518168,
_train_cond.csv,0 1 1 1 1 1 1 1 1 0,8,categoryA,f,,,0,0,0,0,2,1,29,7,,,,,,,,,,,,,,,,,,,j,0,0.059827709000046525,,,,,,,,,,,,,,,,,,,,,,,,,,,,,,,999,001,2021_Sep_03_1251,joplin1,2021.2.3,60.25658773518168,
_train_cond.csv,1 0 0 0 0 0 0 0 0 1,2,categoryB,j,,,0,0,0,0,2,2,30,0,,,,,,,,,,,,,,,,,,,j,1,0.5189936670001316,,,,,,,,,,,,,,,,,,,,,,,,,,,,,,,999,001,2021_Sep_03_1251,joplin1,2021.2.3,60.25658773518168,
_train_cond.csv,1 1 1 0 1 1 0 1 1 1,8,categoryA,f,,,0,0,0,0,2,3,31,11,,,,,,,,,,,,,,,,,,,j,0,1.159821458000124,,,,,,,,,,,,,,,,,,,,,,,,,,,,,,,999,001,2021_Sep_03_1251,joplin1,2021.2.3,60.25658773518168,
_train_cond.csv,0 0 0 1 0 0 1 0 0 0,2,categoryB,j,,,0,0,0,0,2,4,32,4,,,,,,,,,,,,,,,,,,,j,1,0.47868291700001464,,,,,,,,,,,,,,,,,,,,,,,,,,,,,,,999,001,2021_Sep_03_1251,joplin1,2021.2.3,60.25658773518168,
_train_cond.csv,1 1 1 0 0 0 0 1 1 1,6,categoryA,f,,,0,0,0,0,2,5,33,10,,,,,,,,,,,,,,,,,,,f,1,0.5371837919999507,,,,,,,,,,,,,,,,,,,,,,,,,,,,,,,999,001,2021_Sep_03_1251,joplin1,2021.2.3,60.25658773518168,
_train_cond.csv,0 1 0 0 0 0 0 0 1 0,2,categoryB,j,,,0,0,0,0,2,6,34,1,,,,,,,,,,,,,,,,,,,f,0,0.20016087499993773,,,,,,,,,,,,,,,,,,,,,,,,,,,,,,,999,001,2021_Sep_03_1251,joplin1,2021.2.3,60.25658773518168,
_train_cond.csv,0 0 0 1 1 1 1 0 0 0,4,categoryB,j,,,0,0,0,0,2,7,35,3,,,,,,,,,,,,,,,,,,,j,1,1.661803041999974,,,,,,,,,,,,,,,,,,,,,,,,,,,,,,,999,001,2021_Sep_03_1251,joplin1,2021.2.3,60.25658773518168,
_train_cond.csv,0 0 1 1 1 1 1 1 0 0,6,categoryA,f,,,0,0,0,0,2,8,36,13,,,,,,,,,,,,,,,,,,,j,0,0.056421792000037385,,,,,,,,,,,,,,,,,,,,,,,,,,,,,,,999,001,2021_Sep_03_1251,joplin1,2021.2.3,60.25658773518168,
_train_cond.csv,0 0 1 0 1 1 0 1 0 0,4,categoryB,j,,,0,0,0,0,2,9,37,2,,,,,,,,,,,,,,,,,,,f,0,0.9324336249999305,,,,,,,,,,,,,,,,,,,,,,,,,,,,,,,999,001,2021_Sep_03_1251,joplin1,2021.2.3,60.25658773518168,
_train_cond.csv,1 0 1 1 1 1 1 1 0 1,8,categoryA,f,,,0,0,0,0,2,10,38,8,,,,,,,,,,,,,,,,,,,j,0,1.5719097500000316,,,,,,,,,,,,,,,,,,,,,,,,,,,,,,,999,001,2021_Sep_03_1251,joplin1,2021.2.3,60.25658773518168,
_train_cond.csv,1 1 0 1 1 1 1 0 1 1,8,categoryA,f,,,0,0,0,0,2,11,39,12,,,,,,,,,,,,,,,,,,,f,1,1.690789834000043,,,,,,,,,,,,,,,,,,,,,,,,,,,,,,,999,001,2021_Sep_03_1251,joplin1,2021.2.3,60.25658773518168,
_train_cond.csv,1 1 0 1 0 0 1 0 1 1,6,categoryA,f,,,0,0,0,0,2,12,40,9,,,,,,,,,,,,,,,,,,,f,1,2.0126830829999562,,,,,,,,,,,,,,,,,,,,,,,,,,,,,,,999,001,2021_Sep_03_1251,joplin1,2021.2.3,60.25658773518168,
_train_cond.csv,0 0 1 0 0 0 0 1 0 0,2,categoryB,j,,,0,0,0,0,2,13,41,5,,,,,,,,,,,,,,,,,,,j,1,1.306492832999993,,,,,,,,,,,,,,,,,,,,,,,,,,,,,,,999,001,2021_Sep_03_1251,joplin1,2021.2.3,60.25658773518168,
_train_cond.csv,,,,,,,0,0,0,0,,,,,,,,,,,,,,,,,,,,,,,,,,space,8.90769429199986,,,,,,,,,,,,,,,,,,,,,,,,,,,,,999,001,2021_Sep_03_1251,joplin1,2021.2.3,60.25658773518168,
_train_cond.csv,1 1 0 0 0 0 0 0 1 1,4,categoryB,j,,,0,1,1,6,0,0,0,6,,,,,,,,,,,,,,,,,,,f,0,1.5634923749998961,,,,,,,,,,,,,,,,,,,,,,,,,,,,,,,999,001,2021_Sep_03_1251,joplin1,2021.2.3,60.25658773518168,
_train_cond.csv,0 1 0 0 0 0 0 0 1 0,2,categoryB,j,,,0,1,1,6,0,1,1,1,,,,,,,,,,,,,,,,,,,j,1,2.026318749999973,,,,,,,,,,,,,,,,,,,,,,,,,,,,,,,999,001,2021_Sep_03_1251,joplin1,2021.2.3,60.25658773518168,
_train_cond.csv,0 0 0 1 0 0 1 0 0 0,2,categoryB,j,,,0,1,1,6,0,2,2,4,,,,,,,,,,,,,,,,,,,j,1,0.7106436660001236,,,,,,,,,,,,,,,,,,,,,,,,,,,,,,,999,001,2021_Sep_03_1251,joplin1,2021.2.3,60.25658773518168,
_train_cond.csv,1 1 0 1 0 0 1 0 1 1,6,categoryA,f,,,0,1,1,6,0,3,3,9,,,,,,,,,,,,,,,,,,,f,1,0.6719683750000058,,,,,,,,,,,,,,,,,,,,,,,,,,,,,,,999,001,2021_Sep_03_1251,joplin1,2021.2.3,60.25658773518168,
_train_cond.csv,1 1 1 0 0 0 0 1 1 1,6,categoryA,f,,,0,1,1,6,0,4,4,10,,,,,,,,,,,,,,,,,,,f,1,0.35352862500008086,,,,,,,,,,,,,,,,,,,,,,,,,,,,,,,999,001,2021_Sep_03_1251,joplin1,2021.2.3,60.25658773518168,
_train_cond.csv,0 1 1 1 1 1 1 1 1 0,8,categoryA,f,,,0,1,1,6,0,5,5,7,,,,,,,,,,,,,,,,,,,j,0,1.960323082999821,,,,,,,,,,,,,,,,,,,,,,,,,,,,,,,999,001,2021_Sep_03_1251,joplin1,2021.2.3,60.25658773518168,
_train_cond.csv,0 0 1 0 0 0 0 1 0 0,2,categoryB,j,,,0,1,1,6,0,6,6,5,,,,,,,,,,,,,,,,,,,j,1,1.3113510830000905,,,,,,,,,,,,,,,,,,,,,,,,,,,,,,,999,001,2021_Sep_03_1251,joplin1,2021.2.3,60.25658773518168,
_train_cond.csv,1 0 0 0 0 0 0 0 0 1,2,categoryB,j,,,0,1,1,6,0,7,7,0,,,,,,,,,,,,,,,,,,,j,1,1.0638280000000577,,,,,,,,,,,,,,,,,,,,,,,,,,,,,,,999,001,2021_Sep_03_1251,joplin1,2021.2.3,60.25658773518168,
_train_cond.csv,1 1 1 0 1 1 0 1 1 1,8,categoryA,f,,,0,1,1,6,0,8,8,11,,,,,,,,,,,,,,,,,,,j,0,0.8357606249999208,,,,,,,,,,,,,,,,,,,,,,,,,,,,,,,999,001,2021_Sep_03_1251,joplin1,2021.2.3,60.25658773518168,
_train_cond.csv,0 0 0 1 1 1 1 0 0 0,4,categoryB,j,,,0,1,1,6,0,9,9,3,,,,,,,,,,,,,,,,,,,j,1,1.183464875000027,,,,,,,,,,,,,,,,,,,,,,,,,,,,,,,999,001,2021_Sep_03_1251,joplin1,2021.2.3,60.25658773518168,
_train_cond.csv,0 0 1 0 1 1 0 1 0 0,4,categoryB,j,,,0,1,1,6,0,10,10,2,,,,,,,,,,,,,,,,,,,j,1,1.3342024999999467,,,,,,,,,,,,,,,,,,,,,,,,,,,,,,,999,001,2021_Sep_03_1251,joplin1,2021.2.3,60.25658773518168,
_train_cond.csv,0 0 1 1 1 1 1 1 0 0,6,categoryA,f,,,0,1,1,6,0,11,11,13,,,,,,,,,,,,,,,,,,,j,0,1.1349556669999856,,,,,,,,,,,,,,,,,,,,,,,,,,,,,,,999,001,2021_Sep_03_1251,joplin1,2021.2.3,60.25658773518168,
_train_cond.csv,1 1 0 1 1 1 1 0 1 1,8,categoryA,f,,,0,1,1,6,0,12,12,12,,,,,,,,,,,,,,,,,,,None,0,,,,,,,,,,,,,,,,,,,,,,,,,,,,,,,,999,001,2021_Sep_03_1251,joplin1,2021.2.3,60.25658773518168,
_train_cond.csv,1 0 1 1 1 1 1 1 0 1,8,categoryA,f,,,0,1,1,6,0,13,13,8,,,,,,,,,,,,,,,,,,,j,0,1.8538205830000152,,,,,,,,,,,,,,,,,,,,,,,,,,,,,,,999,001,2021_Sep_03_1251,joplin1,2021.2.3,60.25658773518168,
_train_cond.csv,0 0 1 0 0 0 0 1 0 0,2,categoryB,j,,,0,1,1,6,1,0,14,5,,,,,,,,,,,,,,,,,,,j,1,0.5998315410001851,,,,,,,,,,,,,,,,,,,,,,,,,,,,,,,999,001,2021_Sep_03_1251,joplin1,2021.2.3,60.25658773518168,
_train_cond.csv,0 1 0 0 0 0 0 0 1 0,2,categoryB,j,,,0,1,1,6,1,1,15,1,,,,,,,,,,,,,,,,,,,f,0,1.2377269579999393,,,,,,,,,,,,,,,,,,,,,,,,,,,,,,,999,001,2021_Sep_03_1251,joplin1,2021.2.3,60.25658773518168,
_train_cond.csv,0 0 1 1 1 1 1 1 0 0,6,categoryA,f,,,0,1,1,6,1,2,16,13,,,,,,,,,,,,,,,,,,,j,0,0.6890686249998907,,,,,,,,,,,,,,,,,,,,,,,,,,,,,,,999,001,2021_Sep_03_1251,joplin1,2021.2.3,60.25658773518168,
_train_cond.csv,0 0 0 1 1 1 1 0 0 0,4,categoryB,j,,,0,1,1,6,1,3,17,3,,,,,,,,,,,,,,,,,,,None,0,,,,,,,,,,,,,,,,,,,,,,,,,,,,,,,,999,001,2021_Sep_03_1251,joplin1,2021.2.3,60.25658773518168,
_train_cond.csv,0 0 0 1 0 0 1 0 0 0,2,categoryB,j,,,0,1,1,6,1,4,18,4,,,,,,,,,,,,,,,,,,,j,1,0.8650400829999398,,,,,,,,,,,,,,,,,,,,,,,,,,,,,,,999,001,2021_Sep_03_1251,joplin1,2021.2.3,60.25658773518168,
_train_cond.csv,1 1 1 0 0 0 0 1 1 1,6,categoryA,f,,,0,1,1,6,1,5,19,10,,,,,,,,,,,,,,,,,,,f,1,0.4370075829999678,,,,,,,,,,,,,,,,,,,,,,,,,,,,,,,999,001,2021_Sep_03_1251,joplin1,2021.2.3,60.25658773518168,
_train_cond.csv,1 1 1 0 1 1 0 1 1 1,8,categoryA,f,,,0,1,1,6,1,6,20,11,,,,,,,,,,,,,,,,,,,f,1,0.3679869160000635,,,,,,,,,,,,,,,,,,,,,,,,,,,,,,,999,001,2021_Sep_03_1251,joplin1,2021.2.3,60.25658773518168,
_train_cond.csv,1 1 0 1 0 0 1 0 1 1,6,categoryA,f,,,0,1,1,6,1,7,21,9,,,,,,,,,,,,,,,,,,,j,0,0.3346035000001848,,,,,,,,,,,,,,,,,,,,,,,,,,,,,,,999,001,2021_Sep_03_1251,joplin1,2021.2.3,60.25658773518168,
_train_cond.csv,1 1 0 1 1 1 1 0 1 1,8,categoryA,f,,,0,1,1,6,1,8,22,12,,,,,,,,,,,,,,,,,,,j,0,0.7828268329999446,,,,,,,,,,,,,,,,,,,,,,,,,,,,,,,999,001,2021_Sep_03_1251,joplin1,2021.2.3,60.25658773518168,
_train_cond.csv,0 0 1 0 1 1 0 1 0 0,4,categoryB,j,,,0,1,1,6,1,9,23,2,,,,,,,,,,,,,,,,,,,j,1,1.7013943749998361,,,,,,,,,,,,,,,,,,,,,,,,,,,,,,,999,001,2021_Sep_03_1251,joplin1,2021.2.3,60.25658773518168,
_train_cond.csv,1 0 1 1 1 1 1 1 0 1,8,categoryA,f,,,0,1,1,6,1,10,24,8,,,,,,,,,,,,,,,,,,,f,1,1.2882254169999214,,,,,,,,,,,,,,,,,,,,,,,,,,,,,,,999,001,2021_Sep_03_1251,joplin1,2021.2.3,60.25658773518168,
_train_cond.csv,0 1 1 1 1 1 1 1 1 0,8,categoryA,f,,,0,1,1,6,1,11,25,7,,,,,,,,,,,,,,,,,,,f,1,0.7541166669998347,,,,,,,,,,,,,,,,,,,,,,,,,,,,,,,999,001,2021_Sep_03_1251,joplin1,2021.2.3,60.25658773518168,
_train_cond.csv,1 0 0 0 0 0 0 0 0 1,2,categoryB,j,,,0,1,1,6,1,12,26,0,,,,,,,,,,,,,,,,,,,j,1,0.9373112499999934,,,,,,,,,,,,,,,,,,,,,,,,,,,,,,,999,001,2021_Sep_03_1251,joplin1,2021.2.3,60.25658773518168,
_train_cond.csv,1 1 0 0 0 0 0 0 1 1,4,categoryB,j,,,0,1,1,6,1,13,27,6,,,,,,,,,,,,,,,,,,,f,0,2.2160502500000803,,,,,,,,,,,,,,,,,,,,,,,,,,,,,,,999,001,2021_Sep_03_1251,joplin1,2021.2.3,60.25658773518168,
_train_cond.csv,1 1 1 0 0 0 0 1 1 1,6,categoryA,f,,,0,1,1,6,2,0,28,10,,,,,,,,,,,,,,,,,,,f,1,0.6686885419999271,,,,,,,,,,,,,,,,,,,,,,,,,,,,,,,999,001,2021_Sep_03_1251,joplin1,2021.2.3,60.25658773518168,
_train_cond.csv,0 0 0 1 1 1 1 0 0 0,4,categoryB,j,,,0,1,1,6,2,1,29,3,,,,,,,,,,,,,,,,,,,j,1,0.7678229169998758,,,,,,,,,,,,,,,,,,,,,,,,,,,,,,,999,001,2021_Sep_03_1251,joplin1,2021.2.3,60.25658773518168,
_train_cond.csv,0 0 1 0 1 1 0 1 0 0,4,categoryB,j,,,0,1,1,6,2,2,30,2,,,,,,,,,,,,,,,,,,,f,0,1.0533554160001586,,,,,,,,,,,,,,,,,,,,,,,,,,,,,,,999,001,2021_Sep_03_1251,joplin1,2021.2.3,60.25658773518168,
_train_cond.csv,0 0 1 0 0 0 0 1 0 0,2,categoryB,j,,,0,1,1,6,2,3,31,5,,,,,,,,,,,,,,,,,,,j,1,1.5368318749999617,,,,,,,,,,,,,,,,,,,,,,,,,,,,,,,999,001,2021_Sep_03_1251,joplin1,2021.2.3,60.25658773518168,
_train_cond.csv,1 1 1 0 1 1 0 1 1 1,8,categoryA,f,,,0,1,1,6,2,4,32,11,,,,,,,,,,,,,,,,,,,f,1,1.4087761670000418,,,,,,,,,,,,,,,,,,,,,,,,,,,,,,,999,001,2021_Sep_03_1251,joplin1,2021.2.3,60.25658773518168,
_train_cond.csv,0 1 0 0 0 0 0 0 1 0,2,categoryB,j,,,0,1,1,6,2,5,33,1,,,,,,,,,,,,,,,,,,,j,1,1.0914334999999937,,,,,,,,,,,,,,,,,,,,,,,,,,,,,,,999,001,2021_Sep_03_1251,joplin1,2021.2.3,60.25658773518168,
_train_cond.csv,0 1 1 1 1 1 1 1 1 0,8,categoryA,f,,,0,1,1,6,2,6,34,7,,,,,,,,,,,,,,,,,,,f,1,1.0042473329999666,,,,,,,,,,,,,,,,,,,,,,,,,,,,,,,999,001,2021_Sep_03_1251,joplin1,2021.2.3,60.25658773518168,
_train_cond.csv,0 0 1 1 1 1 1 1 0 0,6,categoryA,f,,,0,1,1,6,2,7,35,13,,,,,,,,,,,,,,,,,,,j,0,0.6400356669998928,,,,,,,,,,,,,,,,,,,,,,,,,,,,,,,999,001,2021_Sep_03_1251,joplin1,2021.2.3,60.25658773518168,
_train_cond.csv,1 1 0 0 0 0 0 0 1 1,4,categoryB,j,,,0,1,1,6,2,8,36,6,,,,,,,,,,,,,,,,,,,f,0,0.5482151250000697,,,,,,,,,,,,,,,,,,,,,,,,,,,,,,,999,001,2021_Sep_03_1251,joplin1,2021.2.3,60.25658773518168,
_train_cond.csv,1 1 0 1 0 0 1 0 1 1,6,categoryA,f,,,0,1,1,6,2,9,37,9,,,,,,,,,,,,,,,,,,,f,1,0.9080788339999799,,,,,,,,,,,,,,,,,,,,,,,,,,,,,,,999,001,2021_Sep_03_1251,joplin1,2021.2.3,60.25658773518168,
_train_cond.csv,1 0 1 1 1 1 1 1 0 1,8,categoryA,f,,,0,1,1,6,2,10,38,8,,,,,,,,,,,,,,,,,,,f,1,1.2434457499998643,,,,,,,,,,,,,,,,,,,,,,,,,,,,,,,999,001,2021_Sep_03_1251,joplin1,2021.2.3,60.25658773518168,
_train_cond.csv,0 0 0 1 0 0 1 0 0 0,2,categoryB,j,,,0,1,1,6,2,11,39,4,,,,,,,,,,,,,,,,,,,j,1,1.3367059170000175,,,,,,,,,,,,,,,,,,,,,,,,,,,,,,,999,001,2021_Sep_03_1251,joplin1,2021.2.3,60.25658773518168,
_train_cond.csv,1 1 0 1 1 1 1 0 1 1,8,categoryA,f,,,0,1,1,6,2,12,40,12,,,,,,,,,,,,,,,,,,,f,1,0.8879771249999067,,,,,,,,,,,,,,,,,,,,,,,,,,,,,,,999,001,2021_Sep_03_1251,joplin1,2021.2.3,60.25658773518168,
_train_cond.csv,1 0 0 0 0 0 0 0 0 1,2,categoryB,j,,,0,1,1,6,2,13,41,0,,,,,,,,,,,,,,,,,,,f,0,0.5226175000002513,,,,,,,,,,,,,,,,,,,,,,,,,,,,,,,999,001,2021_Sep_03_1251,joplin1,2021.2.3,60.25658773518168,
_train_cond.csv,,,,,,,0,1,1,6,,,,,,,,,,,,,,,,,,,,,,,,,,space,9.266921249999996,,,,,,,,,,,,,,,,,,,,,,,,,,,,,999,001,2021_Sep_03_1251,joplin1,2021.2.3,60.25658773518168,
_train_cond.csv,1 1 1 0 0 0 0 1 1 1,6,categoryA,f,,,0,2,2,4,0,0,0,10,,,,,,,,,,,,,,,,,,,f,1,1.7405862499999785,,,,,,,,,,,,,,,,,,,,,,,,,,,,,,,999,001,2021_Sep_03_1251,joplin1,2021.2.3,60.25658773518168,
_train_cond.csv,1 0 0 0 0 0 0 0 0 1,2,categoryB,j,,,0,2,2,4,0,1,1,0,,,,,,,,,,,,,,,,,,,f,0,1.3956149580003512,,,,,,,,,,,,,,,,,,,,,,,,,,,,,,,999,001,2021_Sep_03_1251,joplin1,2021.2.3,60.25658773518168,
_train_cond.csv,0 0 1 0 1 1 0 1 0 0,4,categoryB,j,,,0,2,2,4,0,2,2,2,,,,,,,,,,,,,,,,,,,j,1,0.37061304200005907,,,,,,,,,,,,,,,,,,,,,,,,,,,,,,,999,001,2021_Sep_03_1251,joplin1,2021.2.3,60.25658773518168,
_train_cond.csv,0 1 1 1 1 1 1 1 1 0,8,categoryA,f,,,0,2,2,4,0,3,3,7,,,,,,,,,,,,,,,,,,,f,1,1.7926235830000223,,,,,,,,,,,,,,,,,,,,,,,,,,,,,,,999,001,2021_Sep_03_1251,joplin1,2021.2.3,60.25658773518168,
_train_cond.csv,1 1 1 0 1 1 0 1 1 1,8,categoryA,f,,,0,2,2,4,0,4,4,11,,,,,,,,,,,,,,,,,,,f,1,0.9393428749999657,,,,,,,,,,,,,,,,,,,,,,,,,,,,,,,999,001,2021_Sep_03_1251,joplin1,2021.2.3,60.25658773518168,
_train_cond.csv,1 1 0 0 0 0 0 0 1 1,4,categoryB,j,,,0,2,2,4,0,5,5,6,,,,,,,,,,,,,,,,,,,j,1,1.0453375830002187,,,,,,,,,,,,,,,,,,,,,,,,,,,,,,,999,001,2021_Sep_03_1251,joplin1,2021.2.3,60.25658773518168,
_train_cond.csv,0 0 0 1 1 1 1 0 0 0,4,categoryB,j,,,0,2,2,4,0,6,6,3,,,,,,,,,,,,,,,,,,,j,1,0.8003034170001229,,,,,,,,,,,,,,,,,,,,,,,,,,,,,,,999,001,2021_Sep_03_1251,joplin1,2021.2.3,60.25658773518168,
_train_cond.csv,0 0 1 1 1 1 1 1 0 0,6,categoryA,f,,,0,2,2,4,0,7,7,13,,,,,,,,,,,,,,,,,,,f,1,1.5746106250003322,,,,,,,,,,,,,,,,,,,,,,,,,,,,,,,999,001,2021_Sep_03_1251,joplin1,2021.2.3,60.25658773518168,
_train_cond.csv,0 1 0 0 0 0 0 0 1 0,2,categoryB,j,,,0,2,2,4,0,8,8,1,,,,,,,,,,,,,,,,,,,j,1,1.3326398340000196,,,,,,,,,,,,,,,,,,,,,,,,,,,,,,,999,001,2021_Sep_03_1251,joplin1,2021.2.3,60.25658773518168,
_train_cond.csv,1 1 0 1 0 0 1 0 1 1,6,categoryA,f,,,0,2,2,4,0,9,9,9,,,,,,,,,,,,,,,,,,,f,1,0.7183082090000426,,,,,,,,,,,,,,,,,,,,,,,,,,,,,,,999,001,2021_Sep_03_1251,joplin1,2021.2.3,60.25658773518168,
_train_cond.csv,0 0 0 1 0 0 1 0 0 0,2,categoryB,j,,,0,2,2,4,0,10,10,4,,,,,,,,,,,,,,,,,,,j,1,1.00653149999971,,,,,,,,,,,,,,,,,,,,,,,,,,,,,,,999,001,2021_Sep_03_1251,joplin1,2021.2.3,60.25658773518168,
_train_cond.csv,1 1 0 1 1 1 1 0 1 1,8,categoryA,f,,,0,2,2,4,0,11,11,12,,,,,,,,,,,,,,,,,,,f,1,0.7944849579998845,,,,,,,,,,,,,,,,,,,,,,,,,,,,,,,999,001,2021_Sep_03_1251,joplin1,2021.2.3,60.25658773518168,
_train_cond.csv,0 0 1 0 0 0 0 1 0 0,2,categoryB,j,,,0,2,2,4,0,12,12,5,,,,,,,,,,,,,,,,,,,j,1,1.303833874999782,,,,,,,,,,,,,,,,,,,,,,,,,,,,,,,999,001,2021_Sep_03_1251,joplin1,2021.2.3,60.25658773518168,
_train_cond.csv,1 0 1 1 1 1 1 1 0 1,8,categoryA,f,,,0,2,2,4,0,13,13,8,,,,,,,,,,,,,,,,,,,f,1,0.68756837500041,,,,,,,,,,,,,,,,,,,,,,,,,,,,,,,999,001,2021_Sep_03_1251,joplin1,2021.2.3,60.25658773518168,
_train_cond.csv,0 0 1 0 0 0 0 1 0 0,2,categoryB,j,,,0,2,2,4,1,0,14,5,,,,,,,,,,,,,,,,,,,j,1,0.45760487500001545,,,,,,,,,,,,,,,,,,,,,,,,,,,,,,,999,001,2021_Sep_03_1251,joplin1,2021.2.3,60.25658773518168,
_train_cond.csv,1 1 1 0 1 1 0 1 1 1,8,categoryA,f,,,0,2,2,4,1,1,15,11,,,,,,,,,,,,,,,,,,,f,1,0.6132486659998904,,,,,,,,,,,,,,,,,,,,,,,,,,,,,,,999,001,2021_Sep_03_1251,joplin1,2021.2.3,60.25658773518168,
_train_cond.csv,0 1 1 1 1 1 1 1 1 0,8,categoryA,f,,,0,2,2,4,1,2,16,7,,,,,,,,,,,,,,,,,,,j,0,2.226859291999972,,,,,,,,,,,,,,,,,,,,,,,,,,,,,,,999,001,2021_Sep_03_1251,joplin1,2021.2.3,60.25658773518168,
_train_cond.csv,1 0 1 1 1 1 1 1 0 1,8,categoryA,f,,,0,2,2,4,1,3,17,8,,,,,,,,,,,,,,,,,,,f,1,0.2467025839996495,,,,,,,,,,,,,,,,,,,,,,,,,,,,,,,999,001,2021_Sep_03_1251,joplin1,2021.2.3,60.25658773518168,
_train_cond.csv,0 0 1 1 1 1 1 1 0 0,6,categoryA,f,,,0,2,2,4,1,4,18,13,,,,,,,,,,,,,,,,,,,f,1,1.0959884999997485,,,,,,,,,,,,,,,,,,,,,,,,,,,,,,,999,001,2021_Sep_03_1251,joplin1,2021.2.3,60.25658773518168,
_train_cond.csv,0 0 0 1 0 0 1 0 0 0,2,categoryB,j,,,0,2,2,4,1,5,19,4,,,,,,,,,,,,,,,,,,,j,1,0.42693541600010576,,,,,,,,,,,,,,,,,,,,,,,,,,,,,,,999,001,2021_Sep_03_1251,joplin1,2021.2.3,60.25658773518168,
_train_cond.csv,1 1 0 1 1 1 1 0 1 1,8,categoryA,f,,,0,2,2,4,1,6,20,12,,,,,,,,,,,,,,,,,,,f,1,0.5675018329998238,,,,,,,,,,,,,,,,,,,,,,,,,,,,,,,999,001,2021_Sep_03_1251,joplin1,2021.2.3,60.25658773518168,
_train_cond.csv,0 1 0 0 0 0 0 0 1 0,2,categoryB,j,,,0,2,2,4,1,7,21,1,,,,,,,,,,,,,,,,,,,f,0,1.684638791999987,,,,,,,,,,,,,,,,,,,,,,,,,,,,,,,999,001,2021_Sep_03_1251,joplin1,2021.2.3,60.25658773518168,
_train_cond.csv,1 1 0 1 0 0 1 0 1 1,6,categoryA,f,,,0,2,2,4,1,8,22,9,,,,,,,,,,,,,,,,,,,f,1,1.1034213330003695,,,,,,,,,,,,,,,,,,,,,,,,,,,,,,,999,001,2021_Sep_03_1251,joplin1,2021.2.3,60.25658773518168,
_train_cond.csv,0 0 0 1 1 1 1 0 0 0,4,categoryB,j,,,0,2,2,4,1,9,23,3,,,,,,,,,,,,,,,,,,,j,1,1.4565347919997294,,,,,,,,,,,,,,,,,,,,,,,,,,,,,,,999,001,2021_Sep_03_1251,joplin1,2021.2.3,60.25658773518168,
_train_cond.csv,1 1 0 0 0 0 0 0 1 1,4,categoryB,j,,,0,2,2,4,1,10,24,6,,,,,,,,,,,,,,,,,,,f,0,0.41145079199986867,,,,,,,,,,,,,,,,,,,,,,,,,,,,,,,999,001,2021_Sep_03_1251,joplin1,2021.2.3,60.25658773518168,
_train_cond.csv,1 1 1 0 0 0 0 1 1 1,6,categoryA,f,,,0,2,2,4,1,11,25,10,,,,,,,,,,,,,,,,,,,f,1,0.49728941700004725,,,,,,,,,,,,,,,,,,,,,,,,,,,,,,,999,001,2021_Sep_03_1251,joplin1,2021.2.3,60.25658773518168,
_train_cond.csv,0 0 1 0 1 1 0 1 0 0,4,categoryB,j,,,0,2,2,4,1,12,26,2,,,,,,,,,,,,,,,,,,,j,1,1.1948288749999847,,,,,,,,,,,,,,,,,,,,,,,,,,,,,,,999,001,2021_Sep_03_1251,joplin1,2021.2.3,60.25658773518168,
_train_cond.csv,1 0 0 0 0 0 0 0 0 1,2,categoryB,j,,,0,2,2,4,1,13,27,0,,,,,,,,,,,,,,,,,,,f,0,1.574821124999744,,,,,,,,,,,,,,,,,,,,,,,,,,,,,,,999,001,2021_Sep_03_1251,joplin1,2021.2.3,60.25658773518168,
_train_cond.csv,1 0 0 0 0 0 0 0 0 1,2,categoryB,j,,,0,2,2,4,2,0,28,0,,,,,,,,,,,,,,,,,,,j,1,0.3174445409999862,,,,,,,,,,,,,,,,,,,,,,,,,,,,,,,999,001,2021_Sep_03_1251,joplin1,2021.2.3,60.25658773518168,
_train_cond.csv,0 1 1 1 1 1 1 1 1 0,8,categoryA,f,,,0,2,2,4,2,1,29,7,,,,,,,,,,,,,,,,,,,f,1,0.7817367090001426,,,,,,,,,,,,,,,,,,,,,,,,,,,,,,,999,001,2021_Sep_03_1251,joplin1,2021.2.3,60.25658773518168,
_train_cond.csv,0 0 1 1 1 1 1 1 0 0,6,categoryA,f,,,0,2,2,4,2,2,30,13,,,,,,,,,,,,,,,,,,,f,1,1.1327305840000008,,,,,,,,,,,,,,,,,,,,,,,,,,,,,,,999,001,2021_Sep_03_1251,joplin1,2021.2.3,60.25658773518168,
_train_cond.csv,0 1 0 0 0 0 0 0 1 0,2,categoryB,j,,,0,2,2,4,2,3,31,1,,,,,,,,,,,,,,,,,,,j,1,0.7567927080003756,,,,,,,,,,,,,,,,,,,,,,,,,,,,,,,999,001,2021_Sep_03_1251,joplin1,2021.2.3,60.25658773518168,
_train_cond.csv,0 0 1 0 1 1 0 1 0 0,4,categoryB,j,,,0,2,2,4,2,4,32,2,,,,,,,,,,,,,,,,,,,f,0,0.6035421670003416,,,,,,,,,,,,,,,,,,,,,,,,,,,,,,,999,001,2021_Sep_03_1251,joplin1,2021.2.3,60.25658773518168,
_train_cond.csv,1 1 0 0 0 0 0 0 1 1,4,categoryB,j,,,0,2,2,4,2,5,33,6,,,,,,,,,,,,,,,,,,,f,0,0.3609644160001153,,,,,,,,,,,,,,,,,,,,,,,,,,,,,,,999,001,2021_Sep_03_1251,joplin1,2021.2.3,60.25658773518168,
_train_cond.csv,0 0 0 1 0 0 1 0 0 0,2,categoryB,j,,,0,2,2,4,2,6,34,4,,,,,,,,,,,,,,,,,,,j,1,0.4632933339998999,,,,,,,,,,,,,,,,,,,,,,,,,,,,,,,999,001,2021_Sep_03_1251,joplin1,2021.2.3,60.25658773518168,
_train_cond.csv,1 0 1 1 1 1 1 1 0 1,8,categoryA,f,,,0,2,2,4,2,7,35,8,,,,,,,,,,,,,,,,,,,f,1,0.5869711250002183,,,,,,,,,,,,,,,,,,,,,,,,,,,,,,,999,001,2021_Sep_03_1251,joplin1,2021.2.3,60.25658773518168,
_train_cond.csv,1 1 1 0 0 0 0 1 1 1,6,categoryA,f,,,0,2,2,4,2,8,36,10,,,,,,,,,,,,,,,,,,,f,1,1.529266667000229,,,,,,,,,,,,,,,,,,,,,,,,,,,,,,,999,001,2021_Sep_03_1251,joplin1,2021.2.3,60.25658773518168,
_train_cond.csv,1 1 0 1 1 1 1 0 1 1,8,categoryA,f,,,0,2,2,4,2,9,37,12,,,,,,,,,,,,,,,,,,,f,1,0.969612583000071,,,,,,,,,,,,,,,,,,,,,,,,,,,,,,,999,001,2021_Sep_03_1251,joplin1,2021.2.3,60.25658773518168,
_train_cond.csv,0 0 0 1 1 1 1 0 0 0,4,categoryB,j,,,0,2,2,4,2,10,38,3,,,,,,,,,,,,,,,,,,,f,0,0.7536142919998383,,,,,,,,,,,,,,,,,,,,,,,,,,,,,,,999,001,2021_Sep_03_1251,joplin1,2021.2.3,60.25658773518168,
_train_cond.csv,0 0 1 0 0 0 0 1 0 0,2,categoryB,j,,,0,2,2,4,2,11,39,5,,,,,,,,,,,,,,,,,,,j,1,0.7046098750001875,,,,,,,,,,,,,,,,,,,,,,,,,,,,,,,999,001,2021_Sep_03_1251,joplin1,2021.2.3,60.25658773518168,
_train_cond.csv,1 1 1 0 1 1 0 1 1 1,8,categoryA,f,,,0,2,2,4,2,12,40,11,,,,,,,,,,,,,,,,,,,f,1,0.8255508750003173,,,,,,,,,,,,,,,,,,,,,,,,,,,,,,,999,001,2021_Sep_03_1251,joplin1,2021.2.3,60.25658773518168,
_train_cond.csv,1 1 0 1 0 0 1 0 1 1,6,categoryA,f,,,0,2,2,4,2,13,41,9,,,,,,,,,,,,,,,,,,,f,1,1.054055999999946,,,,,,,,,,,,,,,,,,,,,,,,,,,,,,,999,001,2021_Sep_03_1251,joplin1,2021.2.3,60.25658773518168,
_train_cond.csv,,,,,,,0,2,2,4,,,,,,,,,,,,,,,,,,,,,,,,,,space,7.385965542000122,,,,,,,,,,,,,,,,,,,,,,,,,,,,,999,001,2021_Sep_03_1251,joplin1,2021.2.3,60.25658773518168,
_train_cond.csv,1 1 0 0 0 0 0 0 1 1,4,categoryB,j,,,0,3,3,7,0,0,0,6,,,,,,,,,,,,,,,,,,,j,1,1.0307315840000228,,,,,,,,,,,,,,,,,,,,,,,,,,,,,,,999,001,2021_Sep_03_1251,joplin1,2021.2.3,60.25658773518168,
_train_cond.csv,1 1 0 1 0 0 1 0 1 1,6,categoryA,f,,,0,3,3,7,0,1,1,9,,,,,,,,,,,,,,,,,,,j,0,0.45952233299976797,,,,,,,,,,,,,,,,,,,,,,,,,,,,,,,999,001,2021_Sep_03_1251,joplin1,2021.2.3,60.25658773518168,
_train_cond.csv,1 1 1 0 0 0 0 1 1 1,6,categoryA,f,,,0,3,3,7,0,2,2,10,,,,,,,,,,,,,,,,,,,f,1,1.0632351249996645,,,,,,,,,,,,,,,,,,,,,,,,,,,,,,,999,001,2021_Sep_03_1251,joplin1,2021.2.3,60.25658773518168,
_train_cond.csv,0 0 1 0 1 1 0 1 0 0,4,categoryB,j,,,0,3,3,7,0,3,3,2,,,,,,,,,,,,,,,,,,,f,0,0.7372986669997772,,,,,,,,,,,,,,,,,,,,,,,,,,,,,,,999,001,2021_Sep_03_1251,joplin1,2021.2.3,60.25658773518168,
_train_cond.csv,0 0 0 1 0 0 1 0 0 0,2,categoryB,j,,,0,3,3,7,0,4,4,4,,,,,,,,,,,,,,,,,,,j,1,0.48864491600033944,,,,,,,,,,,,,,,,,,,,,,,,,,,,,,,999,001,2021_Sep_03_1251,joplin1,2021.2.3,60.25658773518168,
_train_cond.csv,0 0 0 1 1 1 1 0 0 0,4,categoryB,j,,,0,3,3,7,0,5,5,3,,,,,,,,,,,,,,,,,,,j,1,1.1699212500002432,,,,,,,,,,,,,,,,,,,,,,,,,,,,,,,999,001,2021_Sep_03_1251,joplin1,2021.2.3,60.25658773518168,
_train_cond.csv,0 1 1 1 1 1 1 1 1 0,8,categoryA,f,,,0,3,3,7,0,6,6,7,,,,,,,,,,,,,,,,,,,f,1,1.040617750000365,,,,,,,,,,,,,,,,,,,,,,,,,,,,,,,999,001,2021_Sep_03_1251,joplin1,2021.2.3,60.25658773518168,
_train_cond.csv,0 0 1 1 1 1 1 1 0 0,6,categoryA,f,,,0,3,3,7,0,7,7,13,,,,,,,,,,,,,,,,,,,j,0,0.7167802920002941,,,,,,,,,,,,,,,,,,,,,,,,,,,,,,,999,001,2021_Sep_03_1251,joplin1,2021.2.3,60.25658773518168,
_train_cond.csv,1 1 1 0 1 1 0 1 1 1,8,categoryA,f,,,0,3,3,7,0,8,8,11,,,,,,,,,,,,,,,,,,,f,1,0.4046149170003446,,,,,,,,,,,,,,,,,,,,,,,,,,,,,,,999,001,2021_Sep_03_1251,joplin1,2021.2.3,60.25658773518168,
_train_cond.csv,0 1 0 0 0 0 0 0 1 0,2,categoryB,j,,,0,3,3,7,0,9,9,1,,,,,,,,,,,,,,,,,,,j,1,0.786393500000031,,,,,,,,,,,,,,,,,,,,,,,,,,,,,,,999,001,2021_Sep_03_1251,joplin1,2021.2.3,60.25658773518168,
_train_cond.csv,1 0 1 1 1 1 1 1 0 1,8,categoryA,f,,,0,3,3,7,0,10,10,8,,,,,,,,,,,,,,,,,,,f,1,0.9915344169999116,,,,,,,,,,,,,,,,,,,,,,,,,,,,,,,999,001,2021_Sep_03_1251,joplin1,2021.2.3,60.25658773518168,
_train_cond.csv,1 0 0 0 0 0 0 0 0 1,2,categoryB,j,,,0,3,3,7,0,11,11,0,,,,,,,,,,,,,,,,,,,j,1,0.5901907920001577,,,,,,,,,,,,,,,,,,,,,,,,,,,,,,,999,001,2021_Sep_03_1251,joplin1,2021.2.3,60.25658773518168,
_train_cond.csv,1 1 0 1 1 1 1 0 1 1,8,categoryA,f,,,0,3,3,7,0,12,12,12,,,,,,,,,,,,,,,,,,,f,1,1.0121915830000034,,,,,,,,,,,,,,,,,,,,,,,,,,,,,,,999,001,2021_Sep_03_1251,joplin1,2021.2.3,60.25658773518168,
_train_cond.csv,0 0 1 0 0 0 0 1 0 0,2,categoryB,j,,,0,3,3,7,0,13,13,5,,,,,,,,,,,,,,,,,,,j,1,0.3856900420000784,,,,,,,,,,,,,,,,,,,,,,,,,,,,,,,999,001,2021_Sep_03_1251,joplin1,2021.2.3,60.25658773518168,
_train_cond.csv,1 1 0 0 0 0 0 0 1 1,4,categoryB,j,,,0,3,3,7,1,0,14,6,,,,,,,,,,,,,,,,,,,f,0,0.3659496670002227,,,,,,,,,,,,,,,,,,,,,,,,,,,,,,,999,001,2021_Sep_03_1251,joplin1,2021.2.3,60.25658773518168,
_train_cond.csv,1 1 1 0 0 0 0 1 1 1,6,categoryA,f,,,0,3,3,7,1,1,15,10,,,,,,,,,,,,,,,,,,,f,1,1.4215119580003375,,,,,,,,,,,,,,,,,,,,,,,,,,,,,,,999,001,2021_Sep_03_1251,joplin1,2021.2.3,60.25658773518168,
_train_cond.csv,1 1 0 1 0 0 1 0 1 1,6,categoryA,f,,,0,3,3,7,1,2,16,9,,,,,,,,,,,,,,,,,,,j,0,1.6180570000001353,,,,,,,,,,,,,,,,,,,,,,,,,,,,,,,999,001,2021_Sep_03_1251,joplin1,2021.2.3,60.25658773518168,
_train_cond.csv,0 0 1 0 1 1 0 1 0 0,4,categoryB,j,,,0,3,3,7,1,3,17,2,,,,,,,,,,,,,,,,,,,j,1,1.7350246250002783,,,,,,,,,,,,,,,,,,,,,,,,,,,,,,,999,001,2021_Sep_03_1251,joplin1,2021.2.3,60.25658773518168,
_train_cond.csv,0 0 0 1 1 1 1 0 0 0,4,categoryB,j,,,0,3,3,7,1,4,18,3,,,,,,,,,,,,,,,,,,,f,0,0.6232737909999742,,,,,,,,,,,,,,,,,,,,,,,,,,,,,,,999,001,2021_Sep_03_1251,joplin1,2021.2.3,60.25658773518168,
_train_cond.csv,0 0 1 0 0 0 0 1 0 0,2,categoryB,j,,,0,3,3,7,1,5,19,5,,,,,,,,,,,,,,,,,,,j,1,0.379351042000053,,,,,,,,,,,,,,,,,,,,,,,,,,,,,,,999,001,2021_Sep_03_1251,joplin1,2021.2.3,60.25658773518168,
_train_cond.csv,1 1 0 1 1 1 1 0 1 1,8,categoryA,f,,,0,3,3,7,1,6,20,12,,,,,,,,,,,,,,,,,,,f,1,1.3065257080002084,,,,,,,,,,,,,,,,,,,,,,,,,,,,,,,999,001,2021_Sep_03_1251,joplin1,2021.2.3,60.25658773518168,
_train_cond.csv,1 0 0 0 0 0 0 0 0 1,2,categoryB,j,,,0,3,3,7,1,7,21,0,,,,,,,,,,,,,,,,,,,f,0,1.1554495840000527,,,,,,,,,,,,,,,,,,,,,,,,,,,,,,,999,001,2021_Sep_03_1251,joplin1,2021.2.3,60.25658773518168,
_train_cond.csv,0 1 1 1 1 1 1 1 1 0,8,categoryA,f,,,0,3,3,7,1,8,22,7,,,,,,,,,,,,,,,,,,,j,0,0.4744849589997102,,,,,,,,,,,,,,,,,,,,,,,,,,,,,,,999,001,2021_Sep_03_1251,joplin1,2021.2.3,60.25658773518168,
_train_cond.csv,0 1 0 0 0 0 0 0 1 0,2,categoryB,j,,,0,3,3,7,1,9,23,1,,,,,,,,,,,,,,,,,,,j,1,1.564289750000171,,,,,,,,,,,,,,,,,,,,,,,,,,,,,,,999,001,2021_Sep_03_1251,joplin1,2021.2.3,60.25658773518168,
_train_cond.csv,1 0 1 1 1 1 1 1 0 1,8,categoryA,f,,,0,3,3,7,1,10,24,8,,,,,,,,,,,,,,,,,,,f,1,0.292631541999981,,,,,,,,,,,,,,,,,,,,,,,,,,,,,,,999,001,2021_Sep_03_1251,joplin1,2021.2.3,60.25658773518168,
_train_cond.csv,0 0 1 1 1 1 1 1 0 0,6,categoryA,f,,,0,3,3,7,1,11,25,13,,,,,,,,,,,,,,,,,,,j,0,0.6917075840001417,,,,,,,,,,,,,,,,,,,,,,,,,,,,,,,999,001,2021_Sep_03_1251,joplin1,2021.2.3,60.25658773518168,
_train_cond.csv,1 1 1 0 1 1 0 1 1 1,8,categoryA,f,,,0,3,3,7,1,12,26,11,,,,,,,,,,,,,,,,,,,f,1,0.30989433300010205,,,,,,,,,,,,,,,,,,,,,,,,,,,,,,,999,001,2021_Sep_03_1251,joplin1,2021.2.3,60.25658773518168,
_train_cond.csv,0 0 0 1 0 0 1 0 0 0,2,categoryB,j,,,0,3,3,7,1,13,27,4,,,,,,,,,,,,,,,,,,,j,1,0.3349455000002308,,,,,,,,,,,,,,,,,,,,,,,,,,,,,,,999,001,2021_Sep_03_1251,joplin1,2021.2.3,60.25658773518168,
_train_cond.csv,1 1 1 0 0 0 0 1 1 1,6,categoryA,f,,,0,3,3,7,2,0,28,10,,,,,,,,,,,,,,,,,,,f,1,0.6623369590001857,,,,,,,,,,,,,,,,,,,,,,,,,,,,,,,999,001,2021_Sep_03_1251,joplin1,2021.2.3,60.25658773518168,
_train_cond.csv,0 0 1 0 1 1 0 1 0 0,4,categoryB,j,,,0,3,3,7,2,1,29,2,,,,,,,,,,,,,,,,,,,j,1,0.6167297909996705,,,,,,,,,,,,,,,,,,,,,,,,,,,,,,,999,001,2021_Sep_03_1251,joplin1,2021.2.3,60.25658773518168,
_train_cond.csv,1 0 0 0 0 0 0 0 0 1,2,categoryB,j,,,0,3,3,7,2,2,30,0,,,,,,,,,,,,,,,,,,,f,0,1.0302624999999352,,,,,,,,,,,,,,,,,,,,,,,,,,,,,,,999,001,2021_Sep_03_1251,joplin1,2021.2.3,60.25658773518168,
_train_cond.csv,1 1 1 0 1 1 0 1 1 1,8,categoryA,f,,,0,3,3,7,2,3,31,11,,,,,,,,,,,,,,,,,,,j,0,1.5220711659999324,,,,,,,,,,,,,,,,,,,,,,,,,,,,,,,999,001,2021_Sep_03_1251,joplin1,2021.2.3,60.25658773518168,
_train_cond.csv,0 0 1 1 1 1 1 1 0 0,6,categoryA,f,,,0,3,3,7,2,4,32,13,,,,,,,,,,,,,,,,,,,j,0,0.386895375000222,,,,,,,,,,,,,,,,,,,,,,,,,,,,,,,999,001,2021_Sep_03_1251,joplin1,2021.2.3,60.25658773518168,
_train_cond.csv,0 1 1 1 1 1 1 1 1 0,8,categoryA,f,,,0,3,3,7,2,5,33,7,,,,,,,,,,,,,,,,,,,f,1,0.5529840839999451,,,,,,,,,,,,,,,,,,,,,,,,,,,,,,,999,001,2021_Sep_03_1251,joplin1,2021.2.3,60.25658773518168,
_train_cond.csv,1 1 0 0 0 0 0 0 1 1,4,categoryB,j,,,0,3,3,7,2,6,34,6,,,,,,,,,,,,,,,,,,,j,1,1.3685809590001554,,,,,,,,,,,,,,,,,,,,,,,,,,,,,,,999,001,2021_Sep_03_1251,joplin1,2021.2.3,60.25658773518168,
_train_cond.csv,0 0 0 1 0 0 1 0 0 0,2,categoryB,j,,,0,3,3,7,2,7,35,4,,,,,,,,,,,,,,,,,,,f,0,0.5254340829997091,,,,,,,,,,,,,,,,,,,,,,,,,,,,,,,999,001,2021_Sep_03_1251,joplin1,2021.2.3,60.25658773518168,
_train_cond.csv,0 0 1 0 0 0 0 1 0 0,2,categoryB,j,,,0,3,3,7,2,8,36,5,,,,,,,,,,,,,,,,,,,j,1,0.34932687500031534,,,,,,,,,,,,,,,,,,,,,,,,,,,,,,,999,001,2021_Sep_03_1251,joplin1,2021.2.3,60.25658773518168,
_train_cond.csv,0 0 0 1 1 1 1 0 0 0,4,categoryB,j,,,0,3,3,7,2,9,37,3,,,,,,,,,,,,,,,,,,,f,0,2.21305483299966,,,,,,,,,,,,,,,,,,,,,,,,,,,,,,,999,001,2021_Sep_03_1251,joplin1,2021.2.3,60.25658773518168,
_train_cond.csv,1 0 1 1 1 1 1 1 0 1,8,categoryA,f,,,0,3,3,7,2,10,38,8,,,,,,,,,,,,,,,,,,,f,1,0.4500585000000683,,,,,,,,,,,,,,,,,,,,,,,,,,,,,,,999,001,2021_Sep_03_1251,joplin1,2021.2.3,60.25658773518168,
_train_cond.csv,1 1 0 1 0 0 1 0 1 1,6,categoryA,f,,,0,3,3,7,2,11,39,9,,,,,,,,,,,,,,,,,,,f,1,0.566389333999723,,,,,,,,,,,,,,,,,,,,,,,,,,,,,,,999,001,2021_Sep_03_1251,joplin1,2021.2.3,60.25658773518168,
_train_cond.csv,0 1 0 0 0 0 0 0 1 0,2,categoryB,j,,,0,3,3,7,2,12,40,1,,,,,,,,,,,,,,,,,,,j,1,0.3023971249999704,,,,,,,,,,,,,,,,,,,,,,,,,,,,,,,999,001,2021_Sep_03_1251,joplin1,2021.2.3,60.25658773518168,
_train_cond.csv,1 1 0 1 1 1 1 0 1 1,8,categoryA,f,,,0,3,3,7,2,13,41,12,,,,,,,,,,,,,,,,,,,f,1,1.0703973750000841,,,,,,,,,,,,,,,,,,,,,,,,,,,,,,,999,001,2021_Sep_03_1251,joplin1,2021.2.3,60.25658773518168,
_train_cond.csv,,,,,,,0,3,3,7,,,,,,,,,,,,,,,,,,,,,,,,,,space,3.329531332999977,,,,,,,,,,,,,,,,,,,,,,,,,,,,,999,001,2021_Sep_03_1251,joplin1,2021.2.3,60.25658773518168,
_train_cond.csv,0 0 1 0 1 1 0 1 0 0,4,categoryB,j,,,0,4,4,2,0,0,0,2,,,,,,,,,,,,,,,,,,,j,1,0.7911436670001422,,,,,,,,,,,,,,,,,,,,,,,,,,,,,,,999,001,2021_Sep_03_1251,joplin1,2021.2.3,60.25658773518168,
_train_cond.csv,0 0 1 1 1 1 1 1 0 0,6,categoryA,f,,,0,4,4,2,0,1,1,13,,,,,,,,,,,,,,,,,,,f,1,1.2118638749998354,,,,,,,,,,,,,,,,,,,,,,,,,,,,,,,999,001,2021_Sep_03_1251,joplin1,2021.2.3,60.25658773518168,
_train_cond.csv,1 0 1 1 1 1 1 1 0 1,8,categoryA,f,,,0,4,4,2,0,2,2,8,,,,,,,,,,,,,,,,,,,f,1,0.6006109999998444,,,,,,,,,,,,,,,,,,,,,,,,,,,,,,,999,001,2021_Sep_03_1251,joplin1,2021.2.3,60.25658773518168,
_train_cond.csv,1 1 0 0 0 0 0 0 1 1,4,categoryB,j,,,0,4,4,2,0,3,3,6,,,,,,,,,,,,,,,,,,,j,1,0.542844624999816,,,,,,,,,,,,,,,,,,,,,,,,,,,,,,,999,001,2021_Sep_03_1251,joplin1,2021.2.3,60.25658773518168,
_train_cond.csv,0 0 0 1 0 0 1 0 0 0,2,categoryB,j,,,0,4,4,2,0,4,4,4,,,,,,,,,,,,,,,,,,,j,1,0.8451295840000057,,,,,,,,,,,,,,,,,,,,,,,,,,,,,,,999,001,2021_Sep_03_1251,joplin1,2021.2.3,60.25658773518168,
_train_cond.csv,1 1 0 1 0 0 1 0 1 1,6,categoryA,f,,,0,4,4,2,0,5,5,9,,,,,,,,,,,,,,,,,,,f,1,1.0088441660000171,,,,,,,,,,,,,,,,,,,,,,,,,,,,,,,999,001,2021_Sep_03_1251,joplin1,2021.2.3,60.25658773518168,
_train_cond.csv,1 0 0 0 0 0 0 0 0 1,2,categoryB,j,,,0,4,4,2,0,6,6,0,,,,,,,,,,,,,,,,,,,j,1,0.5098430000002736,,,,,,,,,,,,,,,,,,,,,,,,,,,,,,,999,001,2021_Sep_03_1251,joplin1,2021.2.3,60.25658773518168,
_train_cond.csv,0 1 0 0 0 0 0 0 1 0,2,categoryB,j,,,0,4,4,2,0,7,7,1,,,,,,,,,,,,,,,,,,,j,1,0.5821979580000516,,,,,,,,,,,,,,,,,,,,,,,,,,,,,,,999,001,2021_Sep_03_1251,joplin1,2021.2.3,60.25658773518168,
_train_cond.csv,0 0 0 1 1 1 1 0 0 0,4,categoryB,j,,,0,4,4,2,0,8,8,3,,,,,,,,,,,,,,,,,,,f,0,0.788575624999794,,,,,,,,,,,,,,,,,,,,,,,,,,,,,,,999,001,2021_Sep_03_1251,joplin1,2021.2.3,60.25658773518168,
_train_cond.csv,0 0 1 0 0 0 0 1 0 0,2,categoryB,j,,,0,4,4,2,0,9,9,5,,,,,,,,,,,,,,,,,,,j,1,0.7378549169998223,,,,,,,,,,,,,,,,,,,,,,,,,,,,,,,999,001,2021_Sep_03_1251,joplin1,2021.2.3,60.25658773518168,
_train_cond.csv,1 1 1 0 1 1 0 1 1 1,8,categoryA,f,,,0,4,4,2,0,10,10,11,,,,,,,,,,,,,,,,,,,f,1,0.6581261249998533,,,,,,,,,,,,,,,,,,,,,,,,,,,,,,,999,001,2021_Sep_03_1251,joplin1,2021.2.3,60.25658773518168,
_train_cond.csv,1 1 1 0 0 0 0 1 1 1,6,categoryA,f,,,0,4,4,2,0,11,11,10,,,,,,,,,,,,,,,,,,,j,0,1.2619652500002303,,,,,,,,,,,,,,,,,,,,,,,,,,,,,,,999,001,2021_Sep_03_1251,joplin1,2021.2.3,60.25658773518168,
_train_cond.csv,1 1 0 1 1 1 1 0 1 1,8,categoryA,f,,,0,4,4,2,0,12,12,12,,,,,,,,,,,,,,,,,,,f,1,0.807825542000046,,,,,,,,,,,,,,,,,,,,,,,,,,,,,,,999,001,2021_Sep_03_1251,joplin1,2021.2.3,60.25658773518168,
_train_cond.csv,0 1 1 1 1 1 1 1 1 0,8,categoryA,f,,,0,4,4,2,0,13,13,7,,,,,,,,,,,,,,,,,,,j,0,0.636197207999885,,,,,,,,,,,,,,,,,,,,,,,,,,,,,,,999,001,2021_Sep_03_1251,joplin1,2021.2.3,60.25658773518168,
_train_cond.csv,1 1 0 0 0 0 0 0 1 1,4,categoryB,j,,,0,4,4,2,1,0,14,6,,,,,,,,,,,,,,,,,,,f,0,0.9121736250003778,,,,,,,,,,,,,,,,,,,,,,,,,,,,,,,999,001,2021_Sep_03_1251,joplin1,2021.2.3,60.25658773518168,
_train_cond.csv,0 0 1 0 1 1 0 1 0 0,4,categoryB,j,,,0,4,4,2,1,1,15,2,,,,,,,,,,,,,,,,,,,j,1,1.3211868330004108,,,,,,,,,,,,,,,,,,,,,,,,,,,,,,,999,001,2021_Sep_03_1251,joplin1,2021.2.3,60.25658773518168,
_train_cond.csv,1 1 1 0 1 1 0 1 1 1,8,categoryA,f,,,0,4,4,2,1,2,16,11,,,,,,,,,,,,,,,,,,,f,1,0.3789271670002563,,,,,,,,,,,,,,,,,,,,,,,,,,,,,,,999,001,2021_Sep_03_1251,joplin1,2021.2.3,60.25658773518168,
_train_cond.csv,1 1 1 0 0 0 0 1 1 1,6,categoryA,f,,,0,4,4,2,1,3,17,10,,,,,,,,,,,,,,,,,,,j,0,1.3203328330000659,,,,,,,,,,,,,,,,,,,,,,,,,,,,,,,999,001,2021_Sep_03_1251,joplin1,2021.2.3,60.25658773518168,
_train_cond.csv,1 0 1 1 1 1 1 1 0 1,8,categoryA,f,,,0,4,4,2,1,4,18,8,,,,,,,,,,,,,,,,,,,f,1,0.29003608299990447,,,,,,,,,,,,,,,,,,,,,,,,,,,,,,,999,001,2021_Sep_03_1251,joplin1,2021.2.3,60.25658773518168,
_train_cond.csv,0 1 1 1 1 1 1 1 1 0,8,categoryA,f,,,0,4,4,2,1,5,19,7,,,,,,,,,,,,,,,,,,,j,0,0.9544865000002574,,,,,,,,,,,,,,,,,,,,,,,,,,,,,,,999,001,2021_Sep_03_1251,joplin1,2021.2.3,60.25658773518168,
_train_cond.csv,0 0 1 1 1 1 1 1 0 0,6,categoryA,f,,,0,4,4,2,1,6,20,13,,,,,,,,,,,,,,,,,,,f,1,1.2586975829999574,,,,,,,,,,,,,,,,,,,,,,,,,,,,,,,999,001,2021_Sep_03_1251,joplin1,2021.2.3,60.25658773518168,
_train_cond.csv,1 1 0 1 0 0 1 0 1 1,6,categoryA,f,,,0,4,4,2,1,7,21,9,,,,,,,,,,,,,,,,,,,j,0,0.9727530420000221,,,,,,,,,,,,,,,,,,,,,,,,,,,,,,,999,001,2021_Sep_03_1251,joplin1,2021.2.3,60.25658773518168,
_train_cond.csv,0 0 1 0 0 0 0 1 0 0,2,categoryB,j,,,0,4,4,2,1,8,22,5,,,,,,,,,,,,,,,,,,,j,1,0.9787583330003145,,,,,,,,,,,,,,,,,,,,,,,,,,,,,,,999,001,2021_Sep_03_1251,joplin1,2021.2.3,60.25658773518168,
_train_cond.csv,0 0 0 1 0 0 1 0 0 0,2,categoryB,j,,,0,4,4,2,1,9,23,4,,,,,,,,,,,,,,,,,,,j,1,0.7047664579999946,,,,,,,,,,,,,,,,,,,,,,,,,,,,,,,999,001,2021_Sep_03_1251,joplin1,2021.2.3,60.25658773518168,
_train_cond.csv,1 0 0 0 0 0 0 0 0 1,2,categoryB,j,,,0,4,4,2,1,10,24,0,,,,,,,,,,,,,,,,,,,f,0,2.0571038329999283,,,,,,,,,,,,,,,,,,,,,,,,,,,,,,,999,001,2021_Sep_03_1251,joplin1,2021.2.3,60.25658773518168,
_train_cond.csv,1 1 0 1 1 1 1 0 1 1,8,categoryA,f,,,0,4,4,2,1,11,25,12,,,,,,,,,,,,,,,,,,,f,1,1.3156897909998406,,,,,,,,,,,,,,,,,,,,,,,,,,,,,,,999,001,2021_Sep_03_1251,joplin1,2021.2.3,60.25658773518168,
_train_cond.csv,0 1 0 0 0 0 0 0 1 0,2,categoryB,j,,,0,4,4,2,1,12,26,1,,,,,,,,,,,,,,,,,,,j,1,0.747922749999816,,,,,,,,,,,,,,,,,,,,,,,,,,,,,,,999,001,2021_Sep_03_1251,joplin1,2021.2.3,60.25658773518168,
_train_cond.csv,0 0 0 1 1 1 1 0 0 0,4,categoryB,j,,,0,4,4,2,1,13,27,3,,,,,,,,,,,,,,,,,,,j,1,0.8018320840001252,,,,,,,,,,,,,,,,,,,,,,,,,,,,,,,999,001,2021_Sep_03_1251,joplin1,2021.2.3,60.25658773518168,
_train_cond.csv,0 1 0 0 0 0 0 0 1 0,2,categoryB,j,,,0,4,4,2,2,0,28,1,,,,,,,,,,,,,,,,,,,None,0,,,,,,,,,,,,,,,,,,,,,,,,,,,,,,,,999,001,2021_Sep_03_1251,joplin1,2021.2.3,60.25658773518168,
_train_cond.csv,1 1 1 0 0 0 0 1 1 1,6,categoryA,f,,,0,4,4,2,2,1,29,10,,,,,,,,,,,,,,,,,,,f,1,0.37350879099994927,,,,,,,,,,,,,,,,,,,,,,,,,,,,,,,999,001,2021_Sep_03_1251,joplin1,2021.2.3,60.25658773518168,
_train_cond.csv,0 0 0 1 1 1 1 0 0 0,4,categoryB,j,,,0,4,4,2,2,2,30,3,,,,,,,,,,,,,,,,,,,j,1,0.8900931250000212,,,,,,,,,,,,,,,,,,,,,,,,,,,,,,,999,001,2021_Sep_03_1251,joplin1,2021.2.3,60.25658773518168,
_train_cond.csv,1 1 0 0 0 0 0 0 1 1,4,categoryB,j,,,0,4,4,2,2,3,31,6,,,,,,,,,,,,,,,,,,,f,0,0.4196772919999603,,,,,,,,,,,,,,,,,,,,,,,,,,,,,,,999,001,2021_Sep_03_1251,joplin1,2021.2.3,60.25658773518168,
_train_cond.csv,1 1 0 1 0 0 1 0 1 1,6,categoryA,f,,,0,4,4,2,2,4,32,9,,,,,,,,,,,,,,,,,,,f,1,0.7036019580000357,,,,,,,,,,,,,,,,,,,,,,,,,,,,,,,999,001,2021_Sep_03_1251,joplin1,2021.2.3,60.25658773518168,
_train_cond.csv,0 1 1 1 1 1 1 1 1 0,8,categoryA,f,,,0,4,4,2,2,5,33,7,,,,,,,,,,,,,,,,,,,j,0,0.5282313339998836,,,,,,,,,,,,,,,,,,,,,,,,,,,,,,,999,001,2021_Sep_03_1251,joplin1,2021.2.3,60.25658773518168,
_train_cond.csv,0 0 1 0 1 1 0 1 0 0,4,categoryB,j,,,0,4,4,2,2,6,34,2,,,,,,,,,,,,,,,,,,,f,0,1.5856909589997485,,,,,,,,,,,,,,,,,,,,,,,,,,,,,,,999,001,2021_Sep_03_1251,joplin1,2021.2.3,60.25658773518168,
_train_cond.csv,1 0 0 0 0 0 0 0 0 1,2,categoryB,j,,,0,4,4,2,2,7,35,0,,,,,,,,,,,,,,,,,,,j,1,0.41625458399994386,,,,,,,,,,,,,,,,,,,,,,,,,,,,,,,999,001,2021_Sep_03_1251,joplin1,2021.2.3,60.25658773518168,
_train_cond.csv,1 1 1 0 1 1 0 1 1 1,8,categoryA,f,,,0,4,4,2,2,8,36,11,,,,,,,,,,,,,,,,,,,j,0,0.11685095800021372,,,,,,,,,,,,,,,,,,,,,,,,,,,,,,,999,001,2021_Sep_03_1251,joplin1,2021.2.3,60.25658773518168,
_train_cond.csv,0 0 0 1 0 0 1 0 0 0,2,categoryB,j,,,0,4,4,2,2,9,37,4,,,,,,,,,,,,,,,,,,,j,1,0.8446310839999569,,,,,,,,,,,,,,,,,,,,,,,,,,,,,,,999,001,2021_Sep_03_1251,joplin1,2021.2.3,60.25658773518168,
_train_cond.csv,0 0 1 0 0 0 0 1 0 0,2,categoryB,j,,,0,4,4,2,2,10,38,5,,,,,,,,,,,,,,,,,,,j,1,0.34491991699997016,,,,,,,,,,,,,,,,,,,,,,,,,,,,,,,999,001,2021_Sep_03_1251,joplin1,2021.2.3,60.25658773518168,
_train_cond.csv,1 1 0 1 1 1 1 0 1 1,8,categoryA,f,,,0,4,4,2,2,11,39,12,,,,,,,,,,,,,,,,,,,f,1,0.29598554199992577,,,,,,,,,,,,,,,,,,,,,,,,,,,,,,,999,001,2021_Sep_03_1251,joplin1,2021.2.3,60.25658773518168,
_train_cond.csv,0 0 1 1 1 1 1 1 0 0,6,categoryA,f,,,0,4,4,2,2,12,40,13,,,,,,,,,,,,,,,,,,,f,1,0.7056042079998406,,,,,,,,,,,,,,,,,,,,,,,,,,,,,,,999,001,2021_Sep_03_1251,joplin1,2021.2.3,60.25658773518168,
_train_cond.csv,1 0 1 1 1 1 1 1 0 1,8,categoryA,f,,,0,4,4,2,2,13,41,8,,,,,,,,,,,,,,,,,,,f,1,0.09888762499986115,,,,,,,,,,,,,,,,,,,,,,,,,,,,,,,999,001,2021_Sep_03_1251,joplin1,2021.2.3,60.25658773518168,
_train_cond.csv,,,,,,,0,4,4,2,,,,,,,,,,,,,,,,,,,,,,,,,,space,4.573161165999863,,,,,,,,,,,,,,,,,,,,,,,,,,,,,999,001,2021_Sep_03_1251,joplin1,2021.2.3,60.25658773518168,
_train_cond.csv,1 1 0 0 0 0 0 0 1 1,4,categoryB,j,,,0,5,5,5,0,0,0,6,,,,,,,,,,,,,,,,,,,f,0,0.5998308749999524,,,,,,,,,,,,,,,,,,,,,,,,,,,,,,,999,001,2021_Sep_03_1251,joplin1,2021.2.3,60.25658773518168,
_train_cond.csv,1 1 1 0 0 0 0 1 1 1,6,categoryA,f,,,0,5,5,5,0,1,1,10,,,,,,,,,,,,,,,,,,,j,0,0.7409732500000246,,,,,,,,,,,,,,,,,,,,,,,,,,,,,,,999,001,2021_Sep_03_1251,joplin1,2021.2.3,60.25658773518168,
_train_cond.csv,1 1 1 0 1 1 0 1 1 1,8,categoryA,f,,,0,5,5,5,0,2,2,11,,,,,,,,,,,,,,,,,,,f,1,0.5183169169999928,,,,,,,,,,,,,,,,,,,,,,,,,,,,,,,999,001,2021_Sep_03_1251,joplin1,2021.2.3,60.25658773518168,
_train_cond.csv,0 0 0 1 0 0 1 0 0 0,2,categoryB,j,,,0,5,5,5,0,3,3,4,,,,,,,,,,,,,,,,,,,j,1,0.43027154199990036,,,,,,,,,,,,,,,,,,,,,,,,,,,,,,,999,001,2021_Sep_03_1251,joplin1,2021.2.3,60.25658773518168,
_train_cond.csv,1 1 0 1 1 1 1 0 1 1,8,categoryA,f,,,0,5,5,5,0,4,4,12,,,,,,,,,,,,,,,,,,,f,1,0.4666175419997671,,,,,,,,,,,,,,,,,,,,,,,,,,,,,,,999,001,2021_Sep_03_1251,joplin1,2021.2.3,60.25658773518168,
_train_cond.csv,1 0 0 0 0 0 0 0 0 1,2,categoryB,j,,,0,5,5,5,0,5,5,0,,,,,,,,,,,,,,,,,,,f,0,0.8048812080000971,,,,,,,,,,,,,,,,,,,,,,,,,,,,,,,999,001,2021_Sep_03_1251,joplin1,2021.2.3,60.25658773518168,
_train_cond.csv,0 0 1 0 1 1 0 1 0 0,4,categoryB,j,,,0,5,5,5,0,6,6,2,,,,,,,,,,,,,,,,,,,f,0,0.8099548330001198,,,,,,,,,,,,,,,,,,,,,,,,,,,,,,,999,001,2021_Sep_03_1251,joplin1,2021.2.3,60.25658773518168,
_train_cond.csv,1 1 0 1 0 0 1 0 1 1,6,categoryA,f,,,0,5,5,5,0,7,7,9,,,,,,,,,,,,,,,,,,,f,1,0.3207107910002378,,,,,,,,,,,,,,,,,,,,,,,,,,,,,,,999,001,2021_Sep_03_1251,joplin1,2021.2.3,60.25658773518168,
_train_cond.csv,0 0 1 0 0 0 0 1 0 0,2,categoryB,j,,,0,5,5,5,0,8,8,5,,,,,,,,,,,,,,,,,,,j,1,1.8800155839999206,,,,,,,,,,,,,,,,,,,,,,,,,,,,,,,999,001,2021_Sep_03_1251,joplin1,2021.2.3,60.25658773518168,
_train_cond.csv,0 0 1 1 1 1 1 1 0 0,6,categoryA,f,,,0,5,5,5,0,9,9,13,,,,,,,,,,,,,,,,,,,f,1,0.31341375000010885,,,,,,,,,,,,,,,,,,,,,,,,,,,,,,,999,001,2021_Sep_03_1251,joplin1,2021.2.3,60.25658773518168,
_train_cond.csv,1 0 1 1 1 1 1 1 0 1,8,categoryA,f,,,0,5,5,5,0,10,10,8,,,,,,,,,,,,,,,,,,,f,1,0.4518532920001235,,,,,,,,,,,,,,,,,,,,,,,,,,,,,,,999,001,2021_Sep_03_1251,joplin1,2021.2.3,60.25658773518168,
_train_cond.csv,0 1 1 1 1 1 1 1 1 0,8,categoryA,f,,,0,5,5,5,0,11,11,7,,,,,,,,,,,,,,,,,,,f,1,1.7192173329999605,,,,,,,,,,,,,,,,,,,,,,,,,,,,,,,999,001,2021_Sep_03_1251,joplin1,2021.2.3,60.25658773518168,
_train_cond.csv,0 1 0 0 0 0 0 0 1 0,2,categoryB,j,,,0,5,5,5,0,12,12,1,,,,,,,,,,,,,,,,,,,f,0,1.5675830000000133,,,,,,,,,,,,,,,,,,,,,,,,,,,,,,,999,001,2021_Sep_03_1251,joplin1,2021.2.3,60.25658773518168,
_train_cond.csv,0 0 0 1 1 1 1 0 0 0,4,categoryB,j,,,0,5,5,5,0,13,13,3,,,,,,,,,,,,,,,,,,,j,1,1.1647022500001185,,,,,,,,,,,,,,,,,,,,,,,,,,,,,,,999,001,2021_Sep_03_1251,joplin1,2021.2.3,60.25658773518168,
_train_cond.csv,1 1 0 0 0 0 0 0 1 1,4,categoryB,j,,,0,5,5,5,1,0,14,6,,,,,,,,,,,,,,,,,,,f,0,2.157029167000019,,,,,,,,,,,,,,,,,,,,,,,,,,,,,,,999,001,2021_Sep_03_1251,joplin1,2021.2.3,60.25658773518168,
_train_cond.csv,0 0 0 1 0 0 1 0 0 0,2,categoryB,j,,,0,5,5,5,1,1,15,4,,,,,,,,,,,,,,,,,,,f,0,1.4747858750001797,,,,,,,,,,,,,,,,,,,,,,,,,,,,,,,999,001,2021_Sep_03_1251,joplin1,2021.2.3,60.25658773518168,
_train_cond.csv,1 1 0 1 1 1 1 0 1 1,8,categoryA,f,,,0,5,5,5,1,2,16,12,,,,,,,,,,,,,,,,,,,f,1,0.9181575420002446,,,,,,,,,,,,,,,,,,,,,,,,,,,,,,,999,001,2021_Sep_03_1251,joplin1,2021.2.3,60.25658773518168,
_train_cond.csv,0 0 1 0 1 1 0 1 0 0,4,categoryB,j,,,0,5,5,5,1,3,17,2,,,,,,,,,,,,,,,,,,,f,0,0.8465058749998207,,,,,,,,,,,,,,,,,,,,,,,,,,,,,,,999,001,2021_Sep_03_1251,joplin1,2021.2.3,60.25658773518168,
_train_cond.csv,0 0 1 1 1 1 1 1 0 0,6,categoryA,f,,,0,5,5,5,1,4,18,13,,,,,,,,,,,,,,,,,,,f,1,0.4597259590000249,,,,,,,,,,,,,,,,,,,,,,,,,,,,,,,999,001,2021_Sep_03_1251,joplin1,2021.2.3,60.25658773518168,
_train_cond.csv,0 0 0 1 1 1 1 0 0 0,4,categoryB,j,,,0,5,5,5,1,5,19,3,,,,,,,,,,,,,,,,,,,j,1,1.9822595000000547,,,,,,,,,,,,,,,,,,,,,,,,,,,,,,,999,001,2021_Sep_03_1251,joplin1,2021.2.3,60.25658773518168,
_train_cond.csv,1 0 1 1 1 1 1 1 0 1,8,categoryA,f,,,0,5,5,5,1,6,20,8,,,,,,,,,,,,,,,,,,,f,1,1.371836040999824,,,,,,,,,,,,,,,,,,,,,,,,,,,,,,,999,001,2021_Sep_03_1251,joplin1,2021.2.3,60.25658773518168,
_train_cond.csv,1 1 1 0 1 1 0 1 1 1,8,categoryA,f,,,0,5,5,5,1,7,21,11,,,,,,,,,,,,,,,,,,,f,1,1.5301247499996862,,,,,,,,,,,,,,,,,,,,,,,,,,,,,,,999,001,2021_Sep_03_1251,joplin1,2021.2.3,60.25658773518168,
_train_cond.csv,0 1 0 0 0 0 0 0 1 0,2,categoryB,j,,,0,5,5,5,1,8,22,1,,,,,,,,,,,,,,,,,,,j,1,2.002359833000355,,,,,,,,,,,,,,,,,,,,,,,,,,,,,,,999,001,2021_Sep_03_1251,joplin1,2021.2.3,60.25658773518168,
_train_cond.csv,0 0 1 0 0 0 0 1 0 0,2,categoryB,j,,,0,5,5,5,1,9,23,5,,,,,,,,,,,,,,,,,,,j,1,1.247159417000148,,,,,,,,,,,,,,,,,,,,,,,,,,,,,,,999,001,2021_Sep_03_1251,joplin1,2021.2.3,60.25658773518168,
_train_cond.csv,1 1 1 0 0 0 0 1 1 1,6,categoryA,f,,,0,5,5,5,1,10,24,10,,,,,,,,,,,,,,,,,,,f,1,1.3884961249996195,,,,,,,,,,,,,,,,,,,,,,,,,,,,,,,999,001,2021_Sep_03_1251,joplin1,2021.2.3,60.25658773518168,
_train_cond.csv,1 0 0 0 0 0 0 0 0 1,2,categoryB,j,,,0,5,5,5,1,11,25,0,,,,,,,,,,,,,,,,,,,j,1,1.8423564579998128,,,,,,,,,,,,,,,,,,,,,,,,,,,,,,,999,001,2021_Sep_03_1251,joplin1,2021.2.3,60.25658773518168,
_train_cond.csv,0 1 1 1 1 1 1 1 1 0,8,categoryA,f,,,0,5,5,5,1,12,26,7,,,,,,,,,,,,,,,,,,,f,1,0.805862832999992,,,,,,,,,,,,,,,,,,,,,,,,,,,,,,,999,001,2021_Sep_03_1251,joplin1,2021.2.3,60.25658773518168,
_train_cond.csv,1 1 0 1 0 0 1 0 1 1,6,categoryA,f,,,0,5,5,5,1,13,27,9,,,,,,,,,,,,,,,,,,,j,0,1.4595021250001992,,,,,,,,,,,,,,,,,,,,,,,,,,,,,,,999,001,2021_Sep_03_1251,joplin1,2021.2.3,60.25658773518168,
_train_cond.csv,0 1 1 1 1 1 1 1 1 0,8,categoryA,f,,,0,5,5,5,2,0,28,7,,,,,,,,,,,,,,,,,,,f,1,0.47813829100005023,,,,,,,,,,,,,,,,,,,,,,,,,,,,,,,999,001,2021_Sep_03_1251,joplin1,2021.2.3,60.25658773518168,
_train_cond.csv,0 0 1 0 0 0 0 1 0 0,2,categoryB,j,,,0,5,5,5,2,1,29,5,,,,,,,,,,,,,,,,,,,j,1,1.1757405000003018,,,,,,,,,,,,,,,,,,,,,,,,,,,,,,,999,001,2021_Sep_03_1251,joplin1,2021.2.3,60.25658773518168,
_train_cond.csv,1 1 0 1 1 1 1 0 1 1,8,categoryA,f,,,0,5,5,5,2,2,30,12,,,,,,,,,,,,,,,,,,,f,1,1.3901148749996537,,,,,,,,,,,,,,,,,,,,,,,,,,,,,,,999,001,2021_Sep_03_1251,joplin1,2021.2.3,60.25658773518168,
_train_cond.csv,0 0 0 1 0 0 1 0 0 0,2,categoryB,j,,,0,5,5,5,2,3,31,4,,,,,,,,,,,,,,,,,,,j,1,0.8274958339998193,,,,,,,,,,,,,,,,,,,,,,,,,,,,,,,999,001,2021_Sep_03_1251,joplin1,2021.2.3,60.25658773518168,
_train_cond.csv,1 0 0 0 0 0 0 0 0 1,2,categoryB,j,,,0,5,5,5,2,4,32,0,,,,,,,,,,,,,,,,,,,j,1,1.8464221250001174,,,,,,,,,,,,,,,,,,,,,,,,,,,,,,,999,001,2021_Sep_03_1251,joplin1,2021.2.3,60.25658773518168,
_train_cond.csv,1 1 0 0 0 0 0 0 1 1,4,categoryB,j,,,0,5,5,5,2,5,33,6,,,,,,,,,,,,,,,,,,,f,0,0.5884651249998569,,,,,,,,,,,,,,,,,,,,,,,,,,,,,,,999,001,2021_Sep_03_1251,joplin1,2021.2.3,60.25658773518168,
_train_cond.csv,0 0 1 1 1 1 1 1 0 0,6,categoryA,f,,,0,5,5,5,2,6,34,13,,,,,,,,,,,,,,,,,,,f,1,0.5371562079999421,,,,,,,,,,,,,,,,,,,,,,,,,,,,,,,999,001,2021_Sep_03_1251,joplin1,2021.2.3,60.25658773518168,
_train_cond.csv,1 1 1 0 1 1 0 1 1 1,8,categoryA,f,,,0,5,5,5,2,7,35,11,,,,,,,,,,,,,,,,,,,f,1,1.114122375000079,,,,,,,,,,,,,,,,,,,,,,,,,,,,,,,999,001,2021_Sep_03_1251,joplin1,2021.2.3,60.25658773518168,
_train_cond.csv,1 0 1 1 1 1 1 1 0 1,8,categoryA,f,,,0,5,5,5,2,8,36,8,,,,,,,,,,,,,,,,,,,f,1,0.8280760830002691,,,,,,,,,,,,,,,,,,,,,,,,,,,,,,,999,001,2021_Sep_03_1251,joplin1,2021.2.3,60.25658773518168,
_train_cond.csv,1 1 1 0 0 0 0 1 1 1,6,categoryA,f,,,0,5,5,5,2,9,37,10,,,,,,,,,,,,,,,,,,,f,1,0.3835173750003378,,,,,,,,,,,,,,,,,,,,,,,,,,,,,,,999,001,2021_Sep_03_1251,joplin1,2021.2.3,60.25658773518168,
_train_cond.csv,0 0 1 0 1 1 0 1 0 0,4,categoryB,j,,,0,5,5,5,2,10,38,2,,,,,,,,,,,,,,,,,,,j,1,0.901585709000301,,,,,,,,,,,,,,,,,,,,,,,,,,,,,,,999,001,2021_Sep_03_1251,joplin1,2021.2.3,60.25658773518168,
_train_cond.csv,0 1 0 0 0 0 0 0 1 0,2,categoryB,j,,,0,5,5,5,2,11,39,1,,,,,,,,,,,,,,,,,,,j,1,0.7900892090001435,,,,,,,,,,,,,,,,,,,,,,,,,,,,,,,999,001,2021_Sep_03_1251,joplin1,2021.2.3,60.25658773518168,
_train_cond.csv,1 1 0 1 0 0 1 0 1 1,6,categoryA,f,,,0,5,5,5,2,12,40,9,,,,,,,,,,,,,,,,,,,f,1,0.6366212499997346,,,,,,,,,,,,,,,,,,,,,,,,,,,,,,,999,001,2021_Sep_03_1251,joplin1,2021.2.3,60.25658773518168,
_train_cond.csv,0 0 0 1 1 1 1 0 0 0,4,categoryB,j,,,0,5,5,5,2,13,41,3,,,,,,,,,,,,,,,,,,,f,0,0.6886483329999464,,,,,,,,,,,,,,,,,,,,,,,,,,,,,,,999,001,2021_Sep_03_1251,joplin1,2021.2.3,60.25658773518168,
_train_cond.csv,,,,,,,0,5,5,5,,,,,,,,,,,,,,,,,,,,,,,,,,space,2.402110999999877,,,,,,,,,,,,,,,,,,,,,,,,,,,,,999,001,2021_Sep_03_1251,joplin1,2021.2.3,60.25658773518168,
_train_cond.csv,1 0 0 0 0 0 0 0 0 1,2,categoryB,j,,,0,6,6,1,0,0,0,0,,,,,,,,,,,,,,,,,,,j,1,0.013432000000193511,,,,,,,,,,,,,,,,,,,,,,,,,,,,,,,999,001,2021_Sep_03_1251,joplin1,2021.2.3,60.25658773518168,
_train_cond.csv,0 0 0 1 1 1 1 0 0 0,4,categoryB,j,,,0,6,6,1,0,1,1,3,,,,,,,,,,,,,,,,,,,j,1,0.16948662499999045,,,,,,,,,,,,,,,,,,,,,,,,,,,,,,,999,001,2021_Sep_03_1251,joplin1,2021.2.3,60.25658773518168,
_train_cond.csv,0 1 1 1 1 1 1 1 1 0,8,categoryA,f,,,0,6,6,1,0,2,2,7,,,,,,,,,,,,,,,,,,,f,1,0.17704862499977025,,,,,,,,,,,,,,,,,,,,,,,,,,,,,,,999,001,2021_Sep_03_1251,joplin1,2021.2.3,60.25658773518168,
_train_cond.csv,1 1 1 0 1 1 0 1 1 1,8,categoryA,f,,,0,6,6,1,0,3,3,11,,,,,,,,,,,,,,,,,,,f,1,0.2870138749999569,,,,,,,,,,,,,,,,,,,,,,,,,,,,,,,999,001,2021_Sep_03_1251,joplin1,2021.2.3,60.25658773518168,
_train_cond.csv,1 1 1 0 0 0 0 1 1 1,6,categoryA,f,,,0,6,6,1,0,4,4,10,,,,,,,,,,,,,,,,,,,f,1,0.31255683300014425,,,,,,,,,,,,,,,,,,,,,,,,,,,,,,,999,001,2021_Sep_03_1251,joplin1,2021.2.3,60.25658773518168,
_train_cond.csv,1 1 0 1 1 1 1 0 1 1,8,categoryA,f,,,0,6,6,1,0,5,5,12,,,,,,,,,,,,,,,,,,,f,1,0.4905779160003476,,,,,,,,,,,,,,,,,,,,,,,,,,,,,,,999,001,2021_Sep_03_1251,joplin1,2021.2.3,60.25658773518168,
_train_cond.csv,0 0 1 0 1 1 0 1 0 0,4,categoryB,j,,,0,6,6,1,0,6,6,2,,,,,,,,,,,,,,,,,,,None,0,,,,,,,,,,,,,,,,,,,,,,,,,,,,,,,,999,001,2021_Sep_03_1251,joplin1,2021.2.3,60.25658773518168,
_train_cond.csv,0 1 0 0 0 0 0 0 1 0,2,categoryB,j,,,0,6,6,1,0,7,7,1,,,,,,,,,,,,,,,,,,,j,1,0.12296966700023404,,,,,,,,,,,,,,,,,,,,,,,,,,,,,,,999,001,2021_Sep_03_1251,joplin1,2021.2.3,60.25658773518168,
_train_cond.csv,0 0 0 1 0 0 1 0 0 0,2,categoryB,j,,,0,6,6,1,0,8,8,4,,,,,,,,,,,,,,,,,,,j,1,0.3623182500000439,,,,,,,,,,,,,,,,,,,,,,,,,,,,,,,999,001,2021_Sep_03_1251,joplin1,2021.2.3,60.25658773518168,
_train_cond.csv,0 0 1 1 1 1 1 1 0 0,6,categoryA,f,,,0,6,6,1,0,9,9,13,,,,,,,,,,,,,,,,,,,j,0,0.8499896670000453,,,,,,,,,,,,,,,,,,,,,,,,,,,,,,,999,001,2021_Sep_03_1251,joplin1,2021.2.3,60.25658773518168,
_train_cond.csv,1 1 0 0 0 0 0 0 1 1,4,categoryB,j,,,0,6,6,1,0,10,10,6,,,,,,,,,,,,,,,,,,,f,0,0.8700649580000572,,,,,,,,,,,,,,,,,,,,,,,,,,,,,,,999,001,2021_Sep_03_1251,joplin1,2021.2.3,60.25658773518168,
_train_cond.csv,0 0 1 0 0 0 0 1 0 0,2,categoryB,j,,,0,6,6,1,0,11,11,5,,,,,,,,,,,,,,,,,,,j,1,1.7518219580001642,,,,,,,,,,,,,,,,,,,,,,,,,,,,,,,999,001,2021_Sep_03_1251,joplin1,2021.2.3,60.25658773518168,
_train_cond.csv,1 1 0 1 0 0 1 0 1 1,6,categoryA,f,,,0,6,6,1,0,12,12,9,,,,,,,,,,,,,,,,,,,f,1,1.3599988339997253,,,,,,,,,,,,,,,,,,,,,,,,,,,,,,,999,001,2021_Sep_03_1251,joplin1,2021.2.3,60.25658773518168,
_train_cond.csv,1 0 1 1 1 1 1 1 0 1,8,categoryA,f,,,0,6,6,1,0,13,13,8,,,,,,,,,,,,,,,,,,,f,1,0.3519325420002133,,,,,,,,,,,,,,,,,,,,,,,,,,,,,,,999,001,2021_Sep_03_1251,joplin1,2021.2.3,60.25658773518168,
_train_cond.csv,0 0 0 1 0 0 1 0 0 0,2,categoryB,j,,,0,6,6,1,1,0,14,4,,,,,,,,,,,,,,,,,,,j,1,0.36739445900002465,,,,,,,,,,,,,,,,,,,,,,,,,,,,,,,999,001,2021_Sep_03_1251,joplin1,2021.2.3,60.25658773518168,
_train_cond.csv,0 0 1 0 0 0 0 1 0 0,2,categoryB,j,,,0,6,6,1,1,1,15,5,,,,,,,,,,,,,,,,,,,f,0,0.5260145000002012,,,,,,,,,,,,,,,,,,,,,,,,,,,,,,,999,001,2021_Sep_03_1251,joplin1,2021.2.3,60.25658773518168,
_train_cond.csv,0 0 1 0 1 1 0 1 0 0,4,categoryB,j,,,0,6,6,1,1,2,16,2,,,,,,,,,,,,,,,,,,,f,0,0.2538923340002839,,,,,,,,,,,,,,,,,,,,,,,,,,,,,,,999,001,2021_Sep_03_1251,joplin1,2021.2.3,60.25658773518168,
_train_cond.csv,1 1 0 1 0 0 1 0 1 1,6,categoryA,f,,,0,6,6,1,1,3,17,9,,,,,,,,,,,,,,,,,,,j,0,0.5458956249999574,,,,,,,,,,,,,,,,,,,,,,,,,,,,,,,999,001,2021_Sep_03_1251,joplin1,2021.2.3,60.25658773518168,
_train_cond.csv,0 0 0 1 1 1 1 0 0 0,4,categoryB,j,,,0,6,6,1,1,4,18,3,,,,,,,,,,,,,,,,,,,j,1,1.6658433750003496,,,,,,,,,,,,,,,,,,,,,,,,,,,,,,,999,001,2021_Sep_03_1251,joplin1,2021.2.3,60.25658773518168,
_train_cond.csv,1 1 0 1 1 1 1 0 1 1,8,categoryA,f,,,0,6,6,1,1,5,19,12,,,,,,,,,,,,,,,,,,,f,1,1.0925474170003326,,,,,,,,,,,,,,,,,,,,,,,,,,,,,,,999,001,2021_Sep_03_1251,joplin1,2021.2.3,60.25658773518168,
_train_cond.csv,1 1 0 0 0 0 0 0 1 1,4,categoryB,j,,,0,6,6,1,1,6,20,6,,,,,,,,,,,,,,,,,,,j,1,1.1328308330002983,,,,,,,,,,,,,,,,,,,,,,,,,,,,,,,999,001,2021_Sep_03_1251,joplin1,2021.2.3,60.25658773518168,
_train_cond.csv,1 1 1 0 1 1 0 1 1 1,8,categoryA,f,,,0,6,6,1,1,7,21,11,,,,,,,,,,,,,,,,,,,f,1,0.42210679199979495,,,,,,,,,,,,,,,,,,,,,,,,,,,,,,,999,001,2021_Sep_03_1251,joplin1,2021.2.3,60.25658773518168,
_train_cond.csv,0 1 1 1 1 1 1 1 1 0,8,categoryA,f,,,0,6,6,1,1,8,22,7,,,,,,,,,,,,,,,,,,,f,1,1.0412273750002896,,,,,,,,,,,,,,,,,,,,,,,,,,,,,,,999,001,2021_Sep_03_1251,joplin1,2021.2.3,60.25658773518168,
_train_cond.csv,1 1 1 0 0 0 0 1 1 1,6,categoryA,f,,,0,6,6,1,1,9,23,10,,,,,,,,,,,,,,,,,,,f,1,1.717460709000079,,,,,,,,,,,,,,,,,,,,,,,,,,,,,,,999,001,2021_Sep_03_1251,joplin1,2021.2.3,60.25658773518168,
_train_cond.csv,0 1 0 0 0 0 0 0 1 0,2,categoryB,j,,,0,6,6,1,1,10,24,1,,,,,,,,,,,,,,,,,,,j,1,0.3980342909999308,,,,,,,,,,,,,,,,,,,,,,,,,,,,,,,999,001,2021_Sep_03_1251,joplin1,2021.2.3,60.25658773518168,
_train_cond.csv,0 0 1 1 1 1 1 1 0 0,6,categoryA,f,,,0,6,6,1,1,11,25,13,,,,,,,,,,,,,,,,,,,f,1,0.49961225000015475,,,,,,,,,,,,,,,,,,,,,,,,,,,,,,,999,001,2021_Sep_03_1251,joplin1,2021.2.3,60.25658773518168,
_train_cond.csv,1 0 0 0 0 0 0 0 0 1,2,categoryB,j,,,0,6,6,1,1,12,26,0,,,,,,,,,,,,,,,,,,,j,1,0.4365828340000917,,,,,,,,,,,,,,,,,,,,,,,,,,,,,,,999,001,2021_Sep_03_1251,joplin1,2021.2.3,60.25658773518168,
_train_cond.csv,1 0 1 1 1 1 1 1 0 1,8,categoryA,f,,,0,6,6,1,1,13,27,8,,,,,,,,,,,,,,,,,,,f,1,0.08069258400018953,,,,,,,,,,,,,,,,,,,,,,,,,,,,,,,999,001,2021_Sep_03_1251,joplin1,2021.2.3,60.25658773518168,
_train_cond.csv,0 0 1 1 1 1 1 1 0 0,6,categoryA,f,,,0,6,6,1,2,0,28,13,,,,,,,,,,,,,,,,,,,f,1,0.9786669579998488,,,,,,,,,,,,,,,,,,,,,,,,,,,,,,,999,001,2021_Sep_03_1251,joplin1,2021.2.3,60.25658773518168,
_train_cond.csv,1 0 1 1 1 1 1 1 0 1,8,categoryA,f,,,0,6,6,1,2,1,29,8,,,,,,,,,,,,,,,,,,,f,1,0.6102635419997569,,,,,,,,,,,,,,,,,,,,,,,,,,,,,,,999,001,2021_Sep_03_1251,joplin1,2021.2.3,60.25658773518168,
_train_cond.csv,0 0 1 0 1 1 0 1 0 0,4,categoryB,j,,,0,6,6,1,2,2,30,2,,,,,,,,,,,,,,,,,,,f,0,0.39823012499982724,,,,,,,,,,,,,,,,,,,,,,,,,,,,,,,999,001,2021_Sep_03_1251,joplin1,2021.2.3,60.25658773518168,
_train_cond.csv,0 1 0 0 0 0 0 0 1 0,2,categoryB,j,,,0,6,6,1,2,3,31,1,,,,,,,,,,,,,,,,,,,j,1,0.46017974999995204,,,,,,,,,,,,,,,,,,,,,,,,,,,,,,,999,001,2021_Sep_03_1251,joplin1,2021.2.3,60.25658773518168,
_train_cond.csv,0 0 1 0 0 0 0 1 0 0,2,categoryB,j,,,0,6,6,1,2,4,32,5,,,,,,,,,,,,,,,,,,,f,0,2.2783714170000167,,,,,,,,,,,,,,,,,,,,,,,,,,,,,,,999,001,2021_Sep_03_1251,joplin1,2021.2.3,60.25658773518168,
_train_cond.csv,0 1 1 1 1 1 1 1 1 0,8,categoryA,f,,,0,6,6,1,2,5,33,7,,,,,,,,,,,,,,,,,,,f,1,1.296259249999821,,,,,,,,,,,,,,,,,,,,,,,,,,,,,,,999,001,2021_Sep_03_1251,joplin1,2021.2.3,60.25658773518168,
_train_cond.csv,1 1 0 0 0 0 0 0 1 1,4,categoryB,j,,,0,6,6,1,2,6,34,6,,,,,,,,,,,,,,,,,,,f,0,0.4674297920000754,,,,,,,,,,,,,,,,,,,,,,,,,,,,,,,999,001,2021_Sep_03_1251,joplin1,2021.2.3,60.25658773518168,
_train_cond.csv,0 0 0 1 0 0 1 0 0 0,2,categoryB,j,,,0,6,6,1,2,7,35,4,,,,,,,,,,,,,,,,,,,j,1,1.01251612499982,,,,,,,,,,,,,,,,,,,,,,,,,,,,,,,999,001,2021_Sep_03_1251,joplin1,2021.2.3,60.25658773518168,
_train_cond.csv,1 0 0 0 0 0 0 0 0 1,2,categoryB,j,,,0,6,6,1,2,8,36,0,,,,,,,,,,,,,,,,,,,j,1,1.1220493750001879,,,,,,,,,,,,,,,,,,,,,,,,,,,,,,,999,001,2021_Sep_03_1251,joplin1,2021.2.3,60.25658773518168,
_train_cond.csv,1 1 1 0 1 1 0 1 1 1,8,categoryA,f,,,0,6,6,1,2,9,37,11,,,,,,,,,,,,,,,,,,,f,1,0.6668670829999428,,,,,,,,,,,,,,,,,,,,,,,,,,,,,,,999,001,2021_Sep_03_1251,joplin1,2021.2.3,60.25658773518168,
_train_cond.csv,0 0 0 1 1 1 1 0 0 0,4,categoryB,j,,,0,6,6,1,2,10,38,3,,,,,,,,,,,,,,,,,,,j,1,0.9101016249996974,,,,,,,,,,,,,,,,,,,,,,,,,,,,,,,999,001,2021_Sep_03_1251,joplin1,2021.2.3,60.25658773518168,
_train_cond.csv,1 1 0 1 1 1 1 0 1 1,8,categoryA,f,,,0,6,6,1,2,11,39,12,,,,,,,,,,,,,,,,,,,f,1,0.5199611249995542,,,,,,,,,,,,,,,,,,,,,,,,,,,,,,,999,001,2021_Sep_03_1251,joplin1,2021.2.3,60.25658773518168,
_train_cond.csv,1 1 1 0 0 0 0 1 1 1,6,categoryA,f,,,0,6,6,1,2,12,40,10,,,,,,,,,,,,,,,,,,,j,0,1.9762424580003426,,,,,,,,,,,,,,,,,,,,,,,,,,,,,,,999,001,2021_Sep_03_1251,joplin1,2021.2.3,60.25658773518168,
_train_cond.csv,1 1 0 1 0 0 1 0 1 1,6,categoryA,f,,,0,6,6,1,2,13,41,9,,,,,,,,,,,,,,,,,,,j,0,1.704428999999891,,,,,,,,,,,,,,,,,,,,,,,,,,,,,,,999,001,2021_Sep_03_1251,joplin1,2021.2.3,60.25658773518168,
_train_cond.csv,,,,,,,0,6,6,1,,,,,,,,,,,,,,,,,,,,,,,,,,space,1.5212661249997836,,,,,,,,,,,,,,,,,,,,,,,,,,,,,999,001,2021_Sep_03_1251,joplin1,2021.2.3,60.25658773518168,
_train_cond.csv,0 0 1 0 1 1 0 1 0 0,4,categoryB,j,,,0,7,7,3,0,0,0,2,,,,,,,,,,,,,,,,,,,f,0,0.4246314590000111,,,,,,,,,,,,,,,,,,,,,,,,,,,,,,,999,001,2021_Sep_03_1251,joplin1,2021.2.3,60.25658773518168,
_train_cond.csv,0 1 1 1 1 1 1 1 1 0,8,categoryA,f,,,0,7,7,3,0,1,1,7,,,,,,,,,,,,,,,,,,,f,1,0.34091962499996953,,,,,,,,,,,,,,,,,,,,,,,,,,,,,,,999,001,2021_Sep_03_1251,joplin1,2021.2.3,60.25658773518168,
_train_cond.csv,0 0 1 0 0 0 0 1 0 0,2,categoryB,j,,,0,7,7,3,0,2,2,5,,,,,,,,,,,,,,,,,,,j,1,1.0918061669999588,,,,,,,,,,,,,,,,,,,,,,,,,,,,,,,999,001,2021_Sep_03_1251,joplin1,2021.2.3,60.25658773518168,
_train_cond.csv,1 1 0 1 1 1 1 0 1 1,8,categoryA,f,,,0,7,7,3,0,3,3,12,,,,,,,,,,,,,,,,,,,f,1,0.8375576250000449,,,,,,,,,,,,,,,,,,,,,,,,,,,,,,,999,001,2021_Sep_03_1251,joplin1,2021.2.3,60.25658773518168,
_train_cond.csv,1 0 0 0 0 0 0 0 0 1,2,categoryB,j,,,0,7,7,3,0,4,4,0,,,,,,,,,,,,,,,,,,,j,1,0.5373978750003516,,,,,,,,,,,,,,,,,,,,,,,,,,,,,,,999,001,2021_Sep_03_1251,joplin1,2021.2.3,60.25658773518168,
_train_cond.csv,1 0 1 1 1 1 1 1 0 1,8,categoryA,f,,,0,7,7,3,0,5,5,8,,,,,,,,,,,,,,,,,,,f,1,0.6494686250002815,,,,,,,,,,,,,,,,,,,,,,,,,,,,,,,999,001,2021_Sep_03_1251,joplin1,2021.2.3,60.25658773518168,
_train_cond.csv,1 1 0 0 0 0 0 0 1 1,4,categoryB,j,,,0,7,7,3,0,6,6,6,,,,,,,,,,,,,,,,,,,j,1,0.5651051249997181,,,,,,,,,,,,,,,,,,,,,,,,,,,,,,,999,001,2021_Sep_03_1251,joplin1,2021.2.3,60.25658773518168,
_train_cond.csv,1 1 1 0 1 1 0 1 1 1,8,categoryA,f,,,0,7,7,3,0,7,7,11,,,,,,,,,,,,,,,,,,,f,1,0.7480661660001715,,,,,,,,,,,,,,,,,,,,,,,,,,,,,,,999,001,2021_Sep_03_1251,joplin1,2021.2.3,60.25658773518168,
_train_cond.csv,0 0 0 1 0 0 1 0 0 0,2,categoryB,j,,,0,7,7,3,0,8,8,4,,,,,,,,,,,,,,,,,,,j,1,0.4354117090001637,,,,,,,,,,,,,,,,,,,,,,,,,,,,,,,999,001,2021_Sep_03_1251,joplin1,2021.2.3,60.25658773518168,
_train_cond.csv,1 1 1 0 0 0 0 1 1 1,6,categoryA,f,,,0,7,7,3,0,9,9,10,,,,,,,,,,,,,,,,,,,f,1,0.6139535420002176,,,,,,,,,,,,,,,,,,,,,,,,,,,,,,,999,001,2021_Sep_03_1251,joplin1,2021.2.3,60.25658773518168,
_train_cond.csv,0 1 0 0 0 0 0 0 1 0,2,categoryB,j,,,0,7,7,3,0,10,10,1,,,,,,,,,,,,,,,,,,,j,1,0.28177916599997843,,,,,,,,,,,,,,,,,,,,,,,,,,,,,,,999,001,2021_Sep_03_1251,joplin1,2021.2.3,60.25658773518168,
_train_cond.csv,1 1 0 1 0 0 1 0 1 1,6,categoryA,f,,,0,7,7,3,0,11,11,9,,,,,,,,,,,,,,,,,,,j,0,1.005125874999976,,,,,,,,,,,,,,,,,,,,,,,,,,,,,,,999,001,2021_Sep_03_1251,joplin1,2021.2.3,60.25658773518168,
_train_cond.csv,0 0 1 1 1 1 1 1 0 0,6,categoryA,f,,,0,7,7,3,0,12,12,13,,,,,,,,,,,,,,,,,,,f,1,0.4251702500000647,,,,,,,,,,,,,,,,,,,,,,,,,,,,,,,999,001,2021_Sep_03_1251,joplin1,2021.2.3,60.25658773518168,
_train_cond.csv,0 0 0 1 1 1 1 0 0 0,4,categoryB,j,,,0,7,7,3,0,13,13,3,,,,,,,,,,,,,,,,,,,f,0,1.293220083000051,,,,,,,,,,,,,,,,,,,,,,,,,,,,,,,999,001,2021_Sep_03_1251,joplin1,2021.2.3,60.25658773518168,
_train_cond.csv,1 1 1 0 1 1 0 1 1 1,8,categoryA,f,,,0,7,7,3,1,0,14,11,,,,,,,,,,,,,,,,,,,f,1,0.35127966700019897,,,,,,,,,,,,,,,,,,,,,,,,,,,,,,,999,001,2021_Sep_03_1251,joplin1,2021.2.3,60.25658773518168,
_train_cond.csv,0 0 0 1 0 0 1 0 0 0,2,categoryB,j,,,0,7,7,3,1,1,15,4,,,,,,,,,,,,,,,,,,,j,1,0.8059586250001303,,,,,,,,,,,,,,,,,,,,,,,,,,,,,,,999,001,2021_Sep_03_1251,joplin1,2021.2.3,60.25658773518168,
_train_cond.csv,1 0 0 0 0 0 0 0 0 1,2,categoryB,j,,,0,7,7,3,1,2,16,0,,,,,,,,,,,,,,,,,,,f,0,0.8116419170000881,,,,,,,,,,,,,,,,,,,,,,,,,,,,,,,999,001,2021_Sep_03_1251,joplin1,2021.2.3,60.25658773518168,
_train_cond.csv,0 1 0 0 0 0 0 0 1 0,2,categoryB,j,,,0,7,7,3,1,3,17,1,,,,,,,,,,,,,,,,,,,j,1,1.7119042909998825,,,,,,,,,,,,,,,,,,,,,,,,,,,,,,,999,001,2021_Sep_03_1251,joplin1,2021.2.3,60.25658773518168,
_train_cond.csv,0 0 1 0 1 1 0 1 0 0,4,categoryB,j,,,0,7,7,3,1,4,18,2,,,,,,,,,,,,,,,,,,,j,1,1.192959250000058,,,,,,,,,,,,,,,,,,,,,,,,,,,,,,,999,001,2021_Sep_03_1251,joplin1,2021.2.3,60.25658773518168,
_train_cond.csv,0 0 0 1 1 1 1 0 0 0,4,categoryB,j,,,0,7,7,3,1,5,19,3,,,,,,,,,,,,,,,,,,,f,0,0.9428993749997971,,,,,,,,,,,,,,,,,,,,,,,,,,,,,,,999,001,2021_Sep_03_1251,joplin1,2021.2.3,60.25658773518168,
_train_cond.csv,1 1 0 1 1 1 1 0 1 1,8,categoryA,f,,,0,7,7,3,1,6,20,12,,,,,,,,,,,,,,,,,,,f,1,0.5729975419999391,,,,,,,,,,,,,,,,,,,,,,,,,,,,,,,999,001,2021_Sep_03_1251,joplin1,2021.2.3,60.25658773518168,
_train_cond.csv,1 0 1 1 1 1 1 1 0 1,8,categoryA,f,,,0,7,7,3,1,7,21,8,,,,,,,,,,,,,,,,,,,f,1,0.23727241699998558,,,,,,,,,,,,,,,,,,,,,,,,,,,,,,,999,001,2021_Sep_03_1251,joplin1,2021.2.3,60.25658773518168,
_train_cond.csv,0 0 1 1 1 1 1 1 0 0,6,categoryA,f,,,0,7,7,3,1,8,22,13,,,,,,,,,,,,,,,,,,,f,1,0.48093599999992875,,,,,,,,,,,,,,,,,,,,,,,,,,,,,,,999,001,2021_Sep_03_1251,joplin1,2021.2.3,60.25658773518168,
_train_cond.csv,1 1 0 1 0 0 1 0 1 1,6,categoryA,f,,,0,7,7,3,1,9,23,9,,,,,,,,,,,,,,,,,,,f,1,0.3956138329999703,,,,,,,,,,,,,,,,,,,,,,,,,,,,,,,999,001,2021_Sep_03_1251,joplin1,2021.2.3,60.25658773518168,
_train_cond.csv,0 1 1 1 1 1 1 1 1 0,8,categoryA,f,,,0,7,7,3,1,10,24,7,,,,,,,,,,,,,,,,,,,f,1,1.0647711249998792,,,,,,,,,,,,,,,,,,,,,,,,,,,,,,,999,001,2021_Sep_03_1251,joplin1,2021.2.3,60.25658773518168,
_train_cond.csv,1 1 0 0 0 0 0 0 1 1,4,categoryB,j,,,0,7,7,3,1,11,25,6,,,,,,,,,,,,,,,,,,,j,1,1.5089775000001282,,,,,,,,,,,,,,,,,,,,,,,,,,,,,,,999,001,2021_Sep_03_1251,joplin1,2021.2.3,60.25658773518168,
_train_cond.csv,1 1 1 0 0 0 0 1 1 1,6,categoryA,f,,,0,7,7,3,1,12,26,10,,,,,,,,,,,,,,,,,,,f,1,1.44586845799995,,,,,,,,,,,,,,,,,,,,,,,,,,,,,,,999,001,2021_Sep_03_1251,joplin1,2021.2.3,60.25658773518168,
_train_cond.csv,0 0 1 0 0 0 0 1 0 0,2,categoryB,j,,,0,7,7,3,1,13,27,5,,,,,,,,,,,,,,,,,,,j,1,0.5934292500000993,,,,,,,,,,,,,,,,,,,,,,,,,,,,,,,999,001,2021_Sep_03_1251,joplin1,2021.2.3,60.25658773518168,
_train_cond.csv,1 0 1 1 1 1 1 1 0 1,8,categoryA,f,,,0,7,7,3,2,0,28,8,,,,,,,,,,,,,,,,,,,f,1,0.277351458999874,,,,,,,,,,,,,,,,,,,,,,,,,,,,,,,999,001,2021_Sep_03_1251,joplin1,2021.2.3,60.25658773518168,
_train_cond.csv,0 1 1 1 1 1 1 1 1 0,8,categoryA,f,,,0,7,7,3,2,1,29,7,,,,,,,,,,,,,,,,,,,f,1,0.5454990409998572,,,,,,,,,,,,,,,,,,,,,,,,,,,,,,,999,001,2021_Sep_03_1251,joplin1,2021.2.3,60.25658773518168,
_train_cond.csv,0 0 0 1 0 0 1 0 0 0,2,categoryB,j,,,0,7,7,3,2,2,30,4,,,,,,,,,,,,,,,,,,,j,1,0.5382605419999891,,,,,,,,,,,,,,,,,,,,,,,,,,,,,,,999,001,2021_Sep_03_1251,joplin1,2021.2.3,60.25658773518168,
_train_cond.csv,1 1 0 1 0 0 1 0 1 1,6,categoryA,f,,,0,7,7,3,2,3,31,9,,,,,,,,,,,,,,,,,,,j,0,0.3369776249996903,,,,,,,,,,,,,,,,,,,,,,,,,,,,,,,999,001,2021_Sep_03_1251,joplin1,2021.2.3,60.25658773518168,
_train_cond.csv,1 1 0 0 0 0 0 0 1 1,4,categoryB,j,,,0,7,7,3,2,4,32,6,,,,,,,,,,,,,,,,,,,j,1,0.5529516660003537,,,,,,,,,,,,,,,,,,,,,,,,,,,,,,,999,001,2021_Sep_03_1251,joplin1,2021.2.3,60.25658773518168,
_train_cond.csv,0 1 0 0 0 0 0 0 1 0,2,categoryB,j,,,0,7,7,3,2,5,33,1,,,,,,,,,,,,,,,,,,,j,1,1.3277829170001496,,,,,,,,,,,,,,,,,,,,,,,,,,,,,,,999,001,2021_Sep_03_1251,joplin1,2021.2.3,60.25658773518168,
_train_cond.csv,0 0 0 1 1 1 1 0 0 0,4,categoryB,j,,,0,7,7,3,2,6,34,3,,,,,,,,,,,,,,,,,,,j,1,1.3692559169999186,,,,,,,,,,,,,,,,,,,,,,,,,,,,,,,999,001,2021_Sep_03_1251,joplin1,2021.2.3,60.25658773518168,
_train_cond.csv,1 1 0 1 1 1 1 0 1 1,8,categoryA,f,,,0,7,7,3,2,7,35,12,,,,,,,,,,,,,,,,,,,j,0,1.83954304100007,,,,,,,,,,,,,,,,,,,,,,,,,,,,,,,999,001,2021_Sep_03_1251,joplin1,2021.2.3,60.25658773518168,
_train_cond.csv,0 0 1 0 1 1 0 1 0 0,4,categoryB,j,,,0,7,7,3,2,8,36,2,,,,,,,,,,,,,,,,,,,f,0,1.1068073749997893,,,,,,,,,,,,,,,,,,,,,,,,,,,,,,,999,001,2021_Sep_03_1251,joplin1,2021.2.3,60.25658773518168,
_train_cond.csv,1 1 1 0 1 1 0 1 1 1,8,categoryA,f,,,0,7,7,3,2,9,37,11,,,,,,,,,,,,,,,,,,,f,1,0.8285154170002897,,,,,,,,,,,,,,,,,,,,,,,,,,,,,,,999,001,2021_Sep_03_1251,joplin1,2021.2.3,60.25658773518168,
_train_cond.csv,0 0 1 1 1 1 1 1 0 0,6,categoryA,f,,,0,7,7,3,2,10,38,13,,,,,,,,,,,,,,,,,,,f,1,1.0634864999997262,,,,,,,,,,,,,,,,,,,,,,,,,,,,,,,999,001,2021_Sep_03_1251,joplin1,2021.2.3,60.25658773518168,
_train_cond.csv,1 1 1 0 0 0 0 1 1 1,6,categoryA,f,,,0,7,7,3,2,11,39,10,,,,,,,,,,,,,,,,,,,f,1,1.434221417000117,,,,,,,,,,,,,,,,,,,,,,,,,,,,,,,999,001,2021_Sep_03_1251,joplin1,2021.2.3,60.25658773518168,
_train_cond.csv,1 0 0 0 0 0 0 0 0 1,2,categoryB,j,,,0,7,7,3,2,12,40,0,,,,,,,,,,,,,,,,,,,j,1,0.462729749999653,,,,,,,,,,,,,,,,,,,,,,,,,,,,,,,999,001,2021_Sep_03_1251,joplin1,2021.2.3,60.25658773518168,
_train_cond.csv,0 0 1 0 0 0 0 1 0 0,2,categoryB,j,,,0,7,7,3,2,13,41,5,,,,,,,,,,,,,,,,,,,j,1,0.16997124999988955,,,,,,,,,,,,,,,,,,,,,,,,,,,,,,,999,001,2021_Sep_03_1251,joplin1,2021.2.3,60.25658773518168,
_train_cond.csv,,,,,,,0,7,7,3,,,,,,,,,,,,,,,,,,,,,,,,,,space,1.5038334589999067,,,,,,,,,,,,,,,,,,,,,,,,,,,,,999,001,2021_Sep_03_1251,joplin1,2021.2.3,60.25658773518168,
,,,,,,,,,,,,,,,,,,,,,,,,,,,,,,,,,,,,,,q,20.53180404199975,,,,,,,,,,,,,,,,,,,,,,,,,,,999,001,2021_Sep_03_1251,joplin1,2021.2.3,60.25658773518168,
,,,,,,,,,,,,,,,,,,,,,,,,,,,,,,,,,,,,,,,,f,26.33295579100013,,,,,,,,,,,,,,,,,,,,,,,,,999,001,2021_Sep_03_1251,joplin1,2021.2.3,60.25658773518168,
,,,,,,,,,,,,,,,,,,,,,,,,,,,,,,,,,,,,,,,,,,space,15.41474233300005,,,,,,,,,,,,,,,,,,,,,,,999,001,2021_Sep_03_1251,joplin1,2021.2.3,60.25658773518168,
,,,,,,,,,,,,,,,,,,,,,,,,,,,,,,,,,,,,,,,,,,,,space,2.997513583,,,,,,,,,,,,,,,,,,,,,999,001,2021_Sep_03_1251,joplin1,2021.2.3,60.25658773518168,
,1 0 1 1 1 1 1 1 0 1,8,categoryA,f,genfile2.csv,1,,,,,,,,,0,0,0,1,0,0,0,10,,,,,,,,,,,,,,,,,,,,,,,,f,1,1.5904185829999733,,,,,,,,,,,,,,,,,,999,001,2021_Sep_03_1251,joplin1,2021.2.3,60.25658773518168,
,1 1 0 0 0 0 0 0 1 1,4,categoryB,j,genfile2.csv,1,,,,,,,,,0,0,0,1,0,1,1,8,,,,,,,,,,,,,,,,,,,,,,,,j,1,0.8515293330001441,,,,,,,,,,,,,,,,,,999,001,2021_Sep_03_1251,joplin1,2021.2.3,60.25658773518168,
,1 0 0 0 0 0 0 0 0 1,2,categoryB,j,genfile2.csv,1,,,,,,,,,0,0,0,1,0,2,2,2,,,,,,,,,,,,,,,,,,,,,,,,j,1,0.5200682909999159,,,,,,,,,,,,,,,,,,999,001,2021_Sep_03_1251,joplin1,2021.2.3,60.25658773518168,
,0 0 0 0 0 0 0 0 0 1,1,categoryB,j,genfile2.csv,0,,,,,,,,,0,0,0,1,0,3,3,19,,,,,,,,,,,,,,,,,,,,,,,,j,1,0.8455265419997886,,,,,,,,,,,,,,,,,,999,001,2021_Sep_03_1251,joplin1,2021.2.3,60.25658773518168,
,0 1 1 1 0 1 1 1 1 1,8,categoryA,f,genfile2.csv,0,,,,,,,,,0,0,0,1,0,4,4,46,,,,,,,,,,,,,,,,,,,,,,,,f,1,0.5205416659996445,,,,,,,,,,,,,,,,,,999,001,2021_Sep_03_1251,joplin1,2021.2.3,60.25658773518168,
,0 0 0 0 1 0 0 1 0 0,2,categoryB,j,genfile2.csv,0,,,,,,,,,0,0,0,1,0,5,5,24,,,,,,,,,,,,,,,,,,,,,,,,j,1,0.3047752079996826,,,,,,,,,,,,,,,,,,999,001,2021_Sep_03_1251,joplin1,2021.2.3,60.25658773518168,
,0 0 1 1 1 1 1 1 0 0,6,categoryA,f,genfile2.csv,1,,,,,,,,,0,0,0,1,0,6,6,15,,,,,,,,,,,,,,,,,,,,,,,,f,1,0.27429016699989006,,,,,,,,,,,,,,,,,,999,001,2021_Sep_03_1251,joplin1,2021.2.3,60.25658773518168,
,0 1 1 1 1 1 1 1 1 1,9,categoryA,f,genfile2.csv,0,,,,,,,,,0,0,0,1,0,7,7,53,,,,,,,,,,,,,,,,,,,,,,,,f,1,0.7961447919997227,,,,,,,,,,,,,,,,,,999,001,2021_Sep_03_1251,joplin1,2021.2.3,60.25658773518168,
,1 0 0 1 0 1 1 0 0 0,4,categoryB,j,genfile2.csv,0,,,,,,,,,0,0,0,1,0,8,8,33,,,,,,,,,,,,,,,,,,,,,,,,f,0,1.1189441249998708,,,,,,,,,,,,,,,,,,999,001,2021_Sep_03_1251,joplin1,2021.2.3,60.25658773518168,
,0 0 0 0 0 1 0 0 0 0,1,categoryB,j,genfile2.csv,0,,,,,,,,,0,0,0,1,0,9,9,17,,,,,,,,,,,,,,,,,,,,,,,,f,0,1.2059697079998841,,,,,,,,,,,,,,,,,,999,001,2021_Sep_03_1251,joplin1,2021.2.3,60.25658773518168,
,0 0 1 0 0 0 0 1 0 0,2,categoryB,j,genfile2.csv,1,,,,,,,,,0,0,0,1,0,10,10,7,,,,,,,,,,,,,,,,,,,,,,,,j,1,0.29186200000003737,,,,,,,,,,,,,,,,,,999,001,2021_Sep_03_1251,joplin1,2021.2.3,60.25658773518168,
,0 0 0 1 0 0 1 0 0 0,2,categoryB,j,genfile2.csv,1,,,,,,,,,0,0,0,1,0,11,11,6,,,,,,,,,,,,,,,,,,,,,,,,j,1,0.7889077499999075,,,,,,,,,,,,,,,,,,999,001,2021_Sep_03_1251,joplin1,2021.2.3,60.25658773518168,
,0 0 0 0 0 0 0 0 1 0,1,categoryB,j,genfile2.csv,0,,,,,,,,,0,0,0,1,0,12,12,16,,,,,,,,,,,,,,,,,,,,,,,,j,1,1.0743404170002577,,,,,,,,,,,,,,,,,,999,001,2021_Sep_03_1251,joplin1,2021.2.3,60.25658773518168,
,0 1 1 1 1 1 1 1 0 0,7,categoryA,f,genfile2.csv,0,,,,,,,,,0,0,0,1,0,13,13,45,,,,,,,,,,,,,,,,,,,,,,,,f,1,0.7969901659998868,,,,,,,,,,,,,,,,,,999,001,2021_Sep_03_1251,joplin1,2021.2.3,60.25658773518168,
,1 0 0 0 0 1 0 0 1 1,4,categoryB,j,genfile2.csv,0,,,,,,,,,0,0,0,1,0,14,14,32,,,,,,,,,,,,,,,,,,,,,,,,f,0,1.0017785000000003,,,,,,,,,,,,,,,,,,999,001,2021_Sep_03_1251,joplin1,2021.2.3,60.25658773518168,
,0 1 0 0 0 0 0 0 1 0,2,categoryB,j,genfile2.csv,1,,,,,,,,,0,0,0,1,0,15,15,3,,,,,,,,,,,,,,,,,,,,,,,,j,1,0.09470466599987049,,,,,,,,,,,,,,,,,,999,001,2021_Sep_03_1251,joplin1,2021.2.3,60.25658773518168,
,0 0 1 1 0 0 0 1 0 0,3,categoryB,j,genfile2.csv,0,,,,,,,,,0,0,0,1,0,16,16,28,,,,,,,,,,,,,,,,,,,,,,,,j,1,1.063661250000223,,,,,,,,,,,,,,,,,,999,001,2021_Sep_03_1251,joplin1,2021.2.3,60.25658773518168,
,0 0 0 0 1 0 0 0 1 0,2,categoryB,j,genfile2.csv,0,,,,,,,,,0,0,0,1,0,17,17,23,,,,,,,,,,,,,,,,,,,,,,,,j,1,0.42618050000010044,,,,,,,,,,,,,,,,,,999,001,2021_Sep_03_1251,joplin1,2021.2.3,60.25658773518168,
,0 1 0 0 0 0 0 0 0 0,1,categoryB,j,genfile2.csv,0,,,,,,,,,0,0,0,1,0,18,18,20,,,,,,,,,,,,,,,,,,,,,,,,j,1,0.550453834000109,,,,,,,,,,,,,,,,,,999,001,2021_Sep_03_1251,joplin1,2021.2.3,60.25658773518168,
,0 0 0 1 1 1 1 0 0 0,4,categoryB,j,genfile2.csv,1,,,,,,,,,0,0,0,1,0,19,19,5,,,,,,,,,,,,,,,,,,,,,,,,f,0,0.23825404100034575,,,,,,,,,,,,,,,,,,999,001,2021_Sep_03_1251,joplin1,2021.2.3,60.25658773518168,
,1 1 0 1 1 1 0 0 0 1,6,categoryA,f,genfile2.csv,0,,,,,,,,,0,0,0,1,0,20,20,36,,,,,,,,,,,,,,,,,,,,,,,,f,1,0.6754994590000933,,,,,,,,,,,,,,,,,,999,001,2021_Sep_03_1251,joplin1,2021.2.3,60.25658773518168,
,1 1 1 1 1 1 1 1 1 0,9,categoryA,f,genfile2.csv,0,,,,,,,,,0,0,0,1,0,21,21,51,,,,,,,,,,,,,,,,,,,,,,,,j,0,1.557319500000176,,,,,,,,,,,,,,,,,,999,001,2021_Sep_03_1251,joplin1,2021.2.3,60.25658773518168,
,0 0 0 0 1 0 0 0 0 0,1,categoryB,j,genfile2.csv,0,,,,,,,,,0,0,0,1,0,22,22,18,,,,,,,,,,,,,,,,,,,,,,,,j,1,0.42027425000014773,,,,,,,,,,,,,,,,,,999,001,2021_Sep_03_1251,joplin1,2021.2.3,60.25658773518168,
,0 1 1 1 1 1 1 0 1 1,8,categoryA,f,genfile2.csv,0,,,,,,,,,0,0,0,1,0,23,23,49,,,,,,,,,,,,,,,,,,,,,,,,f,1,0.5674132500002997,,,,,,,,,,,,,,,,,,999,001,2021_Sep_03_1251,joplin1,2021.2.3,60.25658773518168,
,1 0 0 1 1 1 1 1 1 1,8,categoryA,f,genfile2.csv,0,,,,,,,,,0,0,0,1,0,24,24,47,,,,,,,,,,,,,,,,,,,,,,,,f,1,0.30065158299976247,,,,,,,,,,,,,,,,,,999,001,2021_Sep_03_1251,joplin1,2021.2.3,60.25658773518168,
,1 1 1 1 0 1 0 1 0 1,7,categoryA,f,genfile2.csv,0,,,,,,,,,0,0,0,1,0,25,25,44,,,,,,,,,,,,,,,,,,,,,,,,f,1,0.4605797919998622,,,,,,,,,,,,,,,,,,999,001,2021_Sep_03_1251,joplin1,2021.2.3,60.25658773518168,
,0 0 0 0 0 0 0 1 1 1,3,categoryB,j,genfile2.csv,0,,,,,,,,,0,0,0,1,0,26,26,26,,,,,,,,,,,,,,,,,,,,,,,,j,1,0.42206274999989546,,,,,,,,,,,,,,,,,,999,001,2021_Sep_03_1251,joplin1,2021.2.3,60.25658773518168,
,1 1 0 1 1 1 0 0 1 1,7,categoryA,f,genfile2.csv,0,,,,,,,,,0,0,0,1,0,27,27,41,,,,,,,,,,,,,,,,,,,,,,,,f,1,0.4972594579999168,,,,,,,,,,,,,,,,,,999,001,2021_Sep_03_1251,joplin1,2021.2.3,60.25658773518168,
,1 0 0 1 0 0 0 1 0 0,3,categoryB,j,genfile2.csv,0,,,,,,,,,0,0,0,1,0,28,28,30,,,,,,,,,,,,,,,,,,,,,,,,j,1,0.3392232920000424,,,,,,,,,,,,,,,,,,999,001,2021_Sep_03_1251,joplin1,2021.2.3,60.25658773518168,
,1 0 1 1 1 1 0 1 1 0,7,categoryA,f,genfile2.csv,0,,,,,,,,,0,0,0,1,0,29,29,43,,,,,,,,,,,,,,,,,,,,,,,,f,1,0.507429583999965,,,,,,,,,,,,,,,,,,999,001,2021_Sep_03_1251,joplin1,2021.2.3,60.25658773518168,
,0 0 0 0 0 0 0 0 0 0,0,categoryB,j,genfile2.csv,0,,,,,,,,,0,0,0,1,0,30,30,0,,,,,,,,,,,,,,,,,,,,,,,,j,1,0.3557472079996842,,,,,,,,,,,,,,,,,,999,001,2021_Sep_03_1251,joplin1,2021.2.3,60.25658773518168,
,0 0 1 0 0 1 0 1 0 1,4,categoryB,j,genfile2.csv,0,,,,,,,,,0,0,0,1,0,31,31,35,,,,,,,,,,,,,,,,,,,,,,,,f,0,0.4419820000002801,,,,,,,,,,,,,,,,,,999,001,2021_Sep_03_1251,joplin1,2021.2.3,60.25658773518168,
,1 1 1 1 1 1 1 1 1 1,10,categoryA,f,genfile2.csv,0,,,,,,,,,0,0,0,1,0,32,32,1,,,,,,,,,,,,,,,,,,,,,,,,f,1,0.2909524169999713,,,,,,,,,,,,,,,,,,999,001,2021_Sep_03_1251,joplin1,2021.2.3,60.25658773518168,
,1 0 0 0 1 0 0 0 0 0,2,categoryB,j,genfile2.csv,0,,,,,,,,,0,0,0,1,0,33,33,22,,,,,,,,,,,,,,,,,,,,,,,,j,1,0.2208291659999304,,,,,,,,,,,,,,,,,,999,001,2021_Sep_03_1251,joplin1,2021.2.3,60.25658773518168,
,0 1 1 0 1 1 1 1 1 1,8,categoryA,f,genfile2.csv,0,,,,,,,,,0,0,0,1,0,34,34,48,,,,,,,,,,,,,,,,,,,,,,,,f,1,0.44083208300025944,,,,,,,,,,,,,,,,,,999,001,2021_Sep_03_1251,joplin1,2021.2.3,60.25658773518168,
,1 1 1 0 0 0 0 1 1 1,6,categoryA,f,genfile2.csv,1,,,,,,,,,0,0,0,1,0,35,35,12,,,,,,,,,,,,,,,,,,,,,,,,j,0,0.23693308399970192,,,,,,,,,,,,,,,,,,999,001,2021_Sep_03_1251,joplin1,2021.2.3,60.25658773518168,
,1 1 0 1 1 1 1 1 1 1,9,categoryA,f,genfile2.csv,0,,,,,,,,,0,0,0,1,0,36,36,54,,,,,,,,,,,,,,,,,,,,,,,,f,1,0.6074884169997858,,,,,,,,,,,,,,,,,,999,001,2021_Sep_03_1251,joplin1,2021.2.3,60.25658773518168,
,0 0 1 0 1 1 0 1 0 0,4,categoryB,j,genfile2.csv,1,,,,,,,,,0,0,0,1,0,37,37,4,,,,,,,,,,,,,,,,,,,,,,,,f,0,1.044185749999997,,,,,,,,,,,,,,,,,,999,001,2021_Sep_03_1251,joplin1,2021.2.3,60.25658773518168,
,1 1 0 1 1 1 1 0 1 1,8,categoryA,f,genfile2.csv,1,,,,,,,,,0,0,0,1,0,38,38,14,,,,,,,,,,,,,,,,,,,,,,,,f,1,1.3062420410001323,,,,,,,,,,,,,,,,,,999,001,2021_Sep_03_1251,joplin1,2021.2.3,60.25658773518168,
,1 0 1 1 1 1 1 1 0 0,7,categoryA,f,genfile2.csv,0,,,,,,,,,0,0,0,1,0,39,39,42,,,,,,,,,,,,,,,,,,,,,,,,j,0,1.6345707079999556,,,,,,,,,,,,,,,,,,999,001,2021_Sep_03_1251,joplin1,2021.2.3,60.25658773518168,
,0 1 0 0 0 1 0 0 0 0,2,categoryB,j,genfile2.csv,0,,,,,,,,,0,0,0,1,0,40,40,21,,,,,,,,,,,,,,,,,,,,,,,,f,0,0.19683712500000183,,,,,,,,,,,,,,,,,,999,001,2021_Sep_03_1251,joplin1,2021.2.3,60.25658773518168,
,1 1 1 0 0 1 1 1 1 1,8,categoryA,f,genfile2.csv,0,,,,,,,,,0,0,0,1,0,41,41,50,,,,,,,,,,,,,,,,,,,,,,,,f,1,0.3211403329996756,,,,,,,,,,,,,,,,,,999,001,2021_Sep_03_1251,joplin1,2021.2.3,60.25658773518168,
,1 1 1 1 0 1 1 1 1 1,9,categoryA,f,genfile2.csv,0,,,,,,,,,0,0,0,1,0,42,42,52,,,,,,,,,,,,,,,,,,,,,,,,f,1,0.35371283299991774,,,,,,,,,,,,,,,,,,999,001,2021_Sep_03_1251,joplin1,2021.2.3,60.25658773518168,
,1 1 1 1 0 0 0 0 1 1,6,categoryA,f,genfile2.csv,0,,,,,,,,,0,0,0,1,0,43,43,39,,,,,,,,,,,,,,,,,,,,,,,,j,0,1.152399332999721,,,,,,,,,,,,,,,,,,999,001,2021_Sep_03_1251,joplin1,2021.2.3,60.25658773518168,
,0 0 0 1 0 0 0 0 1 1,3,categoryB,j,genfile2.csv,0,,,,,,,,,0,0,0,1,0,44,44,27,,,,,,,,,,,,,,,,,,,,,,,,j,1,0.453565916000116,,,,,,,,,,,,,,,,,,999,001,2021_Sep_03_1251,joplin1,2021.2.3,60.25658773518168,
,0 1 0 1 1 1 1 0 1 0,6,categoryA,f,genfile2.csv,0,,,,,,,,,0,0,0,1,0,45,45,40,,,,,,,,,,,,,,,,,,,,,,,,f,1,1.6716602920000696,,,,,,,,,,,,,,,,,,999,001,2021_Sep_03_1251,joplin1,2021.2.3,60.25658773518168,
,1 1 1 1 1 1 1 0 1 1,9,categoryA,f,genfile2.csv,0,,,,,,,,,0,0,0,1,0,46,46,55,,,,,,,,,,,,,,,,,,,,,,,,f,1,0.4737819169999966,,,,,,,,,,,,,,,,,,999,001,2021_Sep_03_1251,joplin1,2021.2.3,60.25658773518168,
,0 1 0 0 0 0 0 1 0 0,2,categoryB,j,genfile2.csv,0,,,,,,,,,0,0,0,1,0,47,47,25,,,,,,,,,,,,,,,,,,,,,,,,j,1,0.2739626249999674,,,,,,,,,,,,,,,,,,999,001,2021_Sep_03_1251,joplin1,2021.2.3,60.25658773518168,
,0 1 0 0 0 0 0 1 1 0,3,categoryB,j,genfile2.csv,0,,,,,,,,,0,0,0,1,0,48,48,29,,,,,,,,,,,,,,,,,,,,,,,,j,1,0.36182083299991064,,,,,,,,,,,,,,,,,,999,001,2021_Sep_03_1251,joplin1,2021.2.3,60.25658773518168,
,1 1 1 0 1 1 0 1 1 1,8,categoryA,f,genfile2.csv,1,,,,,,,,,0,0,0,1,0,49,49,13,,,,,,,,,,,,,,,,,,,,,,,,f,1,1.1939332920001107,,,,,,,,,,,,,,,,,,999,001,2021_Sep_03_1251,joplin1,2021.2.3,60.25658773518168,
,0 1 0 1 1 1 0 0 0 0,4,categoryB,j,genfile2.csv,0,,,,,,,,,0,0,0,1,0,50,50,34,,,,,,,,,,,,,,,,,,,,,,,,j,1,0.5747432500002105,,,,,,,,,,,,,,,,,,999,001,2021_Sep_03_1251,joplin1,2021.2.3,60.25658773518168,
,0 1 0 0 0 0 1 1 0 1,4,categoryB,j,genfile2.csv,0,,,,,,,,,0,0,0,1,0,51,51,31,,,,,,,,,,,,,,,,,,,,,,,,j,1,0.316910832999838,,,,,,,,,,,,,,,,,,999,001,2021_Sep_03_1251,joplin1,2021.2.3,60.25658773518168,
,1 1 0 1 0 0 1 0 1 1,6,categoryA,f,genfile2.csv,1,,,,,,,,,0,0,0,1,0,52,52,11,,,,,,,,,,,,,,,,,,,,,,,,j,0,0.374099582999861,,,,,,,,,,,,,,,,,,999,001,2021_Sep_03_1251,joplin1,2021.2.3,60.25658773518168,
,0 0 1 0 1 1 1 0 1 1,6,categoryA,f,genfile2.csv,0,,,,,,,,,0,0,0,1,0,53,53,37,,,,,,,,,,,,,,,,,,,,,,,,f,1,0.4760330840003917,,,,,,,,,,,,,,,,,,999,001,2021_Sep_03_1251,joplin1,2021.2.3,60.25658773518168,
,0 1 1 1 1 1 1 1 1 0,8,categoryA,f,genfile2.csv,1,,,,,,,,,0,0,0,1,0,54,54,9,,,,,,,,,,,,,,,,,,,,,,,,f,1,0.398062457999913,,,,,,,,,,,,,,,,,,999,001,2021_Sep_03_1251,joplin1,2021.2.3,60.25658773518168,
,1 1 1 0 0 0 1 1 1 0,6,categoryA,f,genfile2.csv,0,,,,,,,,,0,0,0,1,0,55,55,38,,,,,,,,,,,,,,,,,,,,,,,,j,0,0.7708452920001037,,,,,,,,,,,,,,,,,,999,001,2021_Sep_03_1251,joplin1,2021.2.3,60.25658773518168,
,,,,,genfile2.csv,,,,,,,,,,0,0,0,1,,,,,,,,,,,,,,,,,,space,2.3779244160000417,,,,,,,,,,,,,,,,,,,,,,,,,,,,,999,001,2021_Sep_03_1251,joplin1,2021.2.3,60.25658773518168,
,1 0 0 1 1 0 0 0 0 0,3,categoryB,j,genfile1.csv,0,,,,,,,,,0,1,1,0,0,0,0,28,,,,,,,,,,,,,,,,,,,,,,,,j,1,0.3248115000001235,,,,,,,,,,,,,,,,,,999,001,2021_Sep_03_1251,joplin1,2021.2.3,60.25658773518168,
,1 1 1 0 1 1 1 1 1 1,9,categoryA,f,genfile1.csv,0,,,,,,,,,0,1,1,0,0,1,1,51,,,,,,,,,,,,,,,,,,,,,,,,f,1,0.08397350000041115,,,,,,,,,,,,,,,,,,999,001,2021_Sep_03_1251,joplin1,2021.2.3,60.25658773518168,
,1 0 0 0 0 0 0 0 0 0,1,categoryB,j,genfile1.csv,0,,,,,,,,,0,1,1,0,0,2,2,18,,,,,,,,,,,,,,,,,,,,,,,,j,1,0.7562976659996821,,,,,,,,,,,,,,,,,,999,001,2021_Sep_03_1251,joplin1,2021.2.3,60.25658773518168,
,0 0 0 1 1 0 0 0 0 0,2,categoryB,j,genfile1.csv,0,,,,,,,,,0,1,1,0,0,3,3,24,,,,,,,,,,,,,,,,,,,,,,,,j,1,0.6195665830000507,,,,,,,,,,,,,,,,,,999,001,2021_Sep_03_1251,joplin1,2021.2.3,60.25658773518168,
,0 0 1 0 0 0 0 1 0 0,2,categoryB,j,genfile1.csv,1,,,,,,,,,0,1,1,0,0,4,4,7,,,,,,,,,,,,,,,,,,,,,,,,j,1,0.5284477079999306,,,,,,,,,,,,,,,,,,999,001,2021_Sep_03_1251,joplin1,2021.2.3,60.25658773518168,
,0 0 0 1 0 0 0 0 0 0,1,categoryB,j,genfile1.csv,0,,,,,,,,,0,1,1,0,0,5,5,17,,,,,,,,,,,,,,,,,,,,,,,,j,1,0.9123138330000984,,,,,,,,,,,,,,,,,,999,001,2021_Sep_03_1251,joplin1,2021.2.3,60.25658773518168,
,0 0 1 0 1 0 1 0 0 0,3,categoryB,j,genfile1.csv,0,,,,,,,,,0,1,1,0,0,6,6,27,,,,,,,,,,,,,,,,,,,,,,,,j,1,1.0156554170002892,,,,,,,,,,,,,,,,,,999,001,2021_Sep_03_1251,joplin1,2021.2.3,60.25658773518168,
,1 1 1 1 1 1 1 0 1 0,8,categoryA,f,genfile1.csv,0,,,,,,,,,0,1,1,0,0,7,7,46,,,,,,,,,,,,,,,,,,,,,,,,f,1,0.8847929170001407,,,,,,,,,,,,,,,,,,999,001,2021_Sep_03_1251,joplin1,2021.2.3,60.25658773518168,
,1 1 1 1 1 1 1 1 0 1,9,categoryA,f,genfile1.csv,0,,,,,,,,,0,1,1,0,0,8,8,55,,,,,,,,,,,,,,,,,,,,,,,,f,1,0.45387995900000533,,,,,,,,,,,,,,,,,,999,001,2021_Sep_03_1251,joplin1,2021.2.3,60.25658773518168,
,1 0 1 0 1 1 0 1 1 0,6,categoryA,f,genfile1.csv,0,,,,,,,,,0,1,1,0,0,9,9,39,,,,,,,,,,,,,,,,,,,,,,,,f,1,0.30456625000033455,,,,,,,,,,,,,,,,,,999,001,2021_Sep_03_1251,joplin1,2021.2.3,60.25658773518168,
,1 0 0 1 1 0 1 1 1 1,7,categoryA,f,genfile1.csv,0,,,,,,,,,0,1,1,0,0,10,10,41,,,,,,,,,,,,,,,,,,,,,,,,j,0,0.3117381249999198,,,,,,,,,,,,,,,,,,999,001,2021_Sep_03_1251,joplin1,2021.2.3,60.25658773518168,
,0 0 0 1 1 1 1 0 0 0,4,categoryB,j,genfile1.csv,1,,,,,,,,,0,1,1,0,0,11,11,5,,,,,,,,,,,,,,,,,,,,,,,,f,0,0.6818422080000346,,,,,,,,,,,,,,,,,,999,001,2021_Sep_03_1251,joplin1,2021.2.3,60.25658773518168,
,1 0 1 1 1 1 1 1 1 1,9,categoryA,f,genfile1.csv,0,,,,,,,,,0,1,1,0,0,12,12,53,,,,,,,,,,,,,,,,,,,,,,,,f,1,0.22781645800023398,,,,,,,,,,,,,,,,,,999,001,2021_Sep_03_1251,joplin1,2021.2.3,60.25658773518168,
,1 1 0 0 0 0 0 0 0 0,2,categoryB,j,genfile1.csv,0,,,,,,,,,0,1,1,0,0,13,13,25,,,,,,,,,,,,,,,,,,,,,,,,j,1,0.9287150000000111,,,,,,,,,,,,,,,,,,999,001,2021_Sep_03_1251,joplin1,2021.2.3,60.25658773518168,
,1 1 0 0 1 0 0 0 0 0,3,categoryB,j,genfile1.csv,0,,,,,,,,,0,1,1,0,0,14,14,29,,,,,,,,,,,,,,,,,,,,,,,,j,1,0.5279628750004122,,,,,,,,,,,,,,,,,,999,001,2021_Sep_03_1251,joplin1,2021.2.3,60.25658773518168,
,0 0 0 0 1 1 0 1 0 1,4,categoryB,j,genfile1.csv,0,,,,,,,,,0,1,1,0,0,15,15,31,,,,,,,,,,,,,,,,,,,,,,,,f,0,0.3427575830000933,,,,,,,,,,,,,,,,,,999,001,2021_Sep_03_1251,joplin1,2021.2.3,60.25658773518168,
,0 1 1 0 0 0 0 1 0 1,4,categoryB,j,genfile1.csv,0,,,,,,,,,0,1,1,0,0,16,16,34,,,,,,,,,,,,,,,,,,,,,,,,j,1,0.5022264999997788,,,,,,,,,,,,,,,,,,999,001,2021_Sep_03_1251,joplin1,2021.2.3,60.25658773518168,
,0 0 0 0 0 0 1 0 0 0,1,categoryB,j,genfile1.csv,0,,,,,,,,,0,1,1,0,0,17,17,20,,,,,,,,,,,,,,,,,,,,,,,,j,1,0.5254235000002154,,,,,,,,,,,,,,,,,,999,001,2021_Sep_03_1251,joplin1,2021.2.3,60.25658773518168,
,1 1 1 1 0 1 1 1 0 1,8,categoryA,f,genfile1.csv,0,,,,,,,,,0,1,1,0,0,18,18,48,,,,,,,,,,,,,,,,,,,,,,,,f,1,0.04424320899988743,,,,,,,,,,,,,,,,,,999,001,2021_Sep_03_1251,joplin1,2021.2.3,60.25658773518168,
,0 1 1 0 1 1 1 1 1 0,7,categoryA,f,genfile1.csv,0,,,,,,,,,0,1,1,0,0,19,19,42,,,,,,,,,,,,,,,,,,,,,,,,f,1,0.2476886250001371,,,,,,,,,,,,,,,,,,999,001,2021_Sep_03_1251,joplin1,2021.2.3,60.25658773518168,
,0 1 1 1 1 0 0 1 1 0,6,categoryA,f,genfile1.csv,0,,,,,,,,,0,1,1,0,0,20,20,40,,,,,,,,,,,,,,,,,,,,,,,,j,0,0.21147983399987424,,,,,,,,,,,,,,,,,,999,001,2021_Sep_03_1251,joplin1,2021.2.3,60.25658773518168,
,1 1 1 1 1 0 1 1 0 1,8,categoryA,f,genfile1.csv,0,,,,,,,,,0,1,1,0,0,21,21,50,,,,,,,,,,,,,,,,,,,,,,,,j,0,0.06325508400004765,,,,,,,,,,,,,,,,,,999,001,2021_Sep_03_1251,joplin1,2021.2.3,60.25658773518168,
,0 1 1 0 1 0 1 1 1 1,7,categoryA,f,genfile1.csv,0,,,,,,,,,0,1,1,0,0,22,22,44,,,,,,,,,,,,,,,,,,,,,,,,j,0,0.9134032920001118,,,,,,,,,,,,,,,,,,999,001,2021_Sep_03_1251,joplin1,2021.2.3,60.25658773518168,
,0 0 1 0 1 1 0 1 0 0,4,categoryB,j,genfile1.csv,1,,,,,,,,,0,1,1,0,0,23,23,4,,,,,,,,,,,,,,,,,,,,,,,,f,0,0.3147756250000384,,,,,,,,,,,,,,,,,,999,001,2021_Sep_03_1251,joplin1,2021.2.3,60.25658773518168,
,1 0 0 0 1 0 0 0 1 0,3,categoryB,j,genfile1.csv,0,,,,,,,,,0,1,1,0,0,24,24,26,,,,,,,,,,,,,,,,,,,,,,,,j,1,0.331443790999856,,,,,,,,,,,,,,,,,,999,001,2021_Sep_03_1251,joplin1,2021.2.3,60.25658773518168,
,0 0 1 1 1 1 1 1 0 0,6,categoryA,f,genfile1.csv,1,,,,,,,,,0,1,1,0,0,25,25,15,,,,,,,,,,,,,,,,,,,,,,,,f,1,1.6753639999997176,,,,,,,,,,,,,,,,,,999,001,2021_Sep_03_1251,joplin1,2021.2.3,60.25658773518168,
,0 1 1 0 1 0 0 1 0 0,4,categoryB,j,genfile1.csv,0,,,,,,,,,0,1,1,0,0,26,26,32,,,,,,,,,,,,,,,,,,,,,,,,j,1,0.3967351249998501,,,,,,,,,,,,,,,,,,999,001,2021_Sep_03_1251,joplin1,2021.2.3,60.25658773518168,
,0 0 1 0 0 0 0 0 1 0,2,categoryB,j,genfile1.csv,0,,,,,,,,,0,1,1,0,0,27,27,23,,,,,,,,,,,,,,,,,,,,,,,,j,1,0.0735894580002423,,,,,,,,,,,,,,,,,,999,001,2021_Sep_03_1251,joplin1,2021.2.3,60.25658773518168,
,1 1 0 1 0 0 0 1 1 1,6,categoryA,f,genfile1.csv,0,,,,,,,,,0,1,1,0,0,28,28,37,,,,,,,,,,,,,,,,,,,,,,,,j,0,0.8603494160001901,,,,,,,,,,,,,,,,,,999,001,2021_Sep_03_1251,joplin1,2021.2.3,60.25658773518168,
,0 1 1 1 1 1 1 1 1 0,8,categoryA,f,genfile1.csv,1,,,,,,,,,0,1,1,0,0,29,29,9,,,,,,,,,,,,,,,,,,,,,,,,f,1,0.3032676249999895,,,,,,,,,,,,,,,,,,999,001,2021_Sep_03_1251,joplin1,2021.2.3,60.25658773518168,
,1 1 1 1 1 1 0 1 1 1,9,categoryA,f,genfile1.csv,0,,,,,,,,,0,1,1,0,0,30,30,52,,,,,,,,,,,,,,,,,,,,,,,,f,1,0.7284772500001964,,,,,,,,,,,,,,,,,,999,001,2021_Sep_03_1251,joplin1,2021.2.3,60.25658773518168,
,0 0 1 0 1 0 0 0 0 0,2,categoryB,j,genfile1.csv,0,,,,,,,,,0,1,1,0,0,31,31,21,,,,,,,,,,,,,,,,,,,,,,,,j,1,0.18433083300033104,,,,,,,,,,,,,,,,,,999,001,2021_Sep_03_1251,joplin1,2021.2.3,60.25658773518168,
,0 0 0 0 0 0 0 1 0 0,1,categoryB,j,genfile1.csv,0,,,,,,,,,0,1,1,0,0,32,32,16,,,,,,,,,,,,,,,,,,,,,,,,j,1,0.3642570830002114,,,,,,,,,,,,,,,,,,999,001,2021_Sep_03_1251,joplin1,2021.2.3,60.25658773518168,
,0 1 0 0 0 0 0 0 1 0,2,categoryB,j,genfile1.csv,1,,,,,,,,,0,1,1,0,0,33,33,3,,,,,,,,,,,,,,,,,,,,,,,,j,1,0.1394180420002158,,,,,,,,,,,,,,,,,,999,001,2021_Sep_03_1251,joplin1,2021.2.3,60.25658773518168,
,0 0 0 0 0 0 1 1 0 1,3,categoryB,j,genfile1.csv,0,,,,,,,,,0,1,1,0,0,34,34,30,,,,,,,,,,,,,,,,,,,,,,,,j,1,0.33030079199988904,,,,,,,,,,,,,,,,,,999,001,2021_Sep_03_1251,joplin1,2021.2.3,60.25658773518168,
,1 0 1 1 1 1 1 1 0 1,8,categoryA,f,genfile1.csv,1,,,,,,,,,0,1,1,0,0,35,35,10,,,,,,,,,,,,,,,,,,,,,,,,f,1,0.32283008300009897,,,,,,,,,,,,,,,,,,999,001,2021_Sep_03_1251,joplin1,2021.2.3,60.25658773518168,
,0 1 0 1 1 1 1 1 1 1,8,categoryA,f,genfile1.csv,0,,,,,,,,,0,1,1,0,0,36,36,47,,,,,,,,,,,,,,,,,,,,,,,,f,1,0.7476989580000009,,,,,,,,,,,,,,,,,,999,001,2021_Sep_03_1251,joplin1,2021.2.3,60.25658773518168,
,1 0 1 0 1 1 1 1 1 1,8,categoryA,f,genfile1.csv,0,,,,,,,,,0,1,1,0,0,37,37,49,,,,,,,,,,,,,,,,,,,,,,,,f,1,1.5307219579999582,,,,,,,,,,,,,,,,,,999,001,2021_Sep_03_1251,joplin1,2021.2.3,60.25658773518168,
,0 0 0 1 0 0 1 0 0 0,2,categoryB,j,genfile1.csv,1,,,,,,,,,0,1,1,0,0,38,38,6,,,,,,,,,,,,,,,,,,,,,,,,j,1,1.0525199999997312,,,,,,,,,,,,,,,,,,999,001,2021_Sep_03_1251,joplin1,2021.2.3,60.25658773518168,
,0 0 1 1 0 1 0 1 1 1,6,categoryA,f,genfile1.csv,0,,,,,,,,,0,1,1,0,0,39,39,38,,,,,,,,,,,,,,,,,,,,,,,,f,1,0.2627575420001449,,,,,,,,,,,,,,,,,,999,001,2021_Sep_03_1251,joplin1,2021.2.3,60.25658773518168,
,1 1 0 1 0 0 1 0 1 1,6,categoryA,f,genfile1.csv,1,,,,,,,,,0,1,1,0,0,40,40,11,,,,,,,,,,,,,,,,,,,,,,,,j,0,0.9553290410003683,,,,,,,,,,,,,,,,,,999,001,2021_Sep_03_1251,joplin1,2021.2.3,60.25658773518168,
,0 1 0 0 1 0 0 0 0 0,2,categoryB,j,genfile1.csv,0,,,,,,,,,0,1,1,0,0,41,41,22,,,,,,,,,,,,,,,,,,,,,,,,j,1,0.7209709589997146,,,,,,,,,,,,,,,,,,999,001,2021_Sep_03_1251,joplin1,2021.2.3,60.25658773518168,
,0 0 1 0 0 0 0 0 0 0,1,categoryB,j,genfile1.csv,0,,,,,,,,,0,1,1,0,0,42,42,19,,,,,,,,,,,,,,,,,,,,,,,,j,1,0.3205755409999256,,,,,,,,,,,,,,,,,,999,001,2021_Sep_03_1251,joplin1,2021.2.3,60.25658773518168,
,0 1 0 1 0 0 0 1 0 1,4,categoryB,j,genfile1.csv,0,,,,,,,,,0,1,1,0,0,43,43,35,,,,,,,,,,,,,,,,,,,,,,,,j,1,0.5759478330001002,,,,,,,,,,,,,,,,,,999,001,2021_Sep_03_1251,joplin1,2021.2.3,60.25658773518168,
,0 0 0 0 0 0 0 0 0 0,0,categoryB,j,genfile1.csv,0,,,,,,,,,0,1,1,0,0,44,44,0,,,,,,,,,,,,,,,,,,,,,,,,j,1,0.8077232499999809,,,,,,,,,,,,,,,,,,999,001,2021_Sep_03_1251,joplin1,2021.2.3,60.25658773518168,
,1 0 1 1 0 0 1 1 1 1,7,categoryA,f,genfile1.csv,0,,,,,,,,,0,1,1,0,0,45,45,45,,,,,,,,,,,,,,,,,,,,,,,,j,0,1.4595528330000889,,,,,,,,,,,,,,,,,,999,001,2021_Sep_03_1251,joplin1,2021.2.3,60.25658773518168,
,1 1 1 0 0 0 0 1 1 1,6,categoryA,f,genfile1.csv,1,,,,,,,,,0,1,1,0,0,46,46,12,,,,,,,,,,,,,,,,,,,,,,,,None,0,,,,,,,,,,,,,,,,,,,999,001,2021_Sep_03_1251,joplin1,2021.2.3,60.25658773518168,
,1 0 1 0 1 1 0 1 1 1,7,categoryA,f,genfile1.csv,0,,,,,,,,,0,1,1,0,0,47,47,43,,,,,,,,,,,,,,,,,,,,,,,,f,1,0.3008301249997203,,,,,,,,,,,,,,,,,,999,001,2021_Sep_03_1251,joplin1,2021.2.3,60.25658773518168,
,1 1 0 1 1 1 1 0 1 1,8,categoryA,f,genfile1.csv,1,,,,,,,,,0,1,1,0,0,48,48,14,,,,,,,,,,,,,,,,,,,,,,,,f,1,0.19077583299986145,,,,,,,,,,,,,,,,,,999,001,2021_Sep_03_1251,joplin1,2021.2.3,60.25658773518168,
,1 1 1 1 1 0 1 1 1 1,9,categoryA,f,genfile1.csv,0,,,,,,,,,0,1,1,0,0,49,49,54,,,,,,,,,,,,,,,,,,,,,,,,j,0,0.21800866700004917,,,,,,,,,,,,,,,,,,999,001,2021_Sep_03_1251,joplin1,2021.2.3,60.25658773518168,
,1 0 0 0 0 0 0 0 0 1,2,categoryB,j,genfile1.csv,1,,,,,,,,,0,1,1,0,0,50,50,2,,,,,,,,,,,,,,,,,,,,,,,,f,0,0.782290125000145,,,,,,,,,,,,,,,,,,999,001,2021_Sep_03_1251,joplin1,2021.2.3,60.25658773518168,
,1 1 1 0 1 0 0 1 1 0,6,categoryA,f,genfile1.csv,0,,,,,,,,,0,1,1,0,0,51,51,36,,,,,,,,,,,,,,,,,,,,,,,,j,0,0.526752708999993,,,,,,,,,,,,,,,,,,999,001,2021_Sep_03_1251,joplin1,2021.2.3,60.25658773518168,
,0 0 0 0 0 1 1 1 1 0,4,categoryB,j,genfile1.csv,0,,,,,,,,,0,1,1,0,0,52,52,33,,,,,,,,,,,,,,,,,,,,,,,,f,0,0.41425487500009694,,,,,,,,,,,,,,,,,,999,001,2021_Sep_03_1251,joplin1,2021.2.3,60.25658773518168,
,1 1 1 1 1 1 1 1 1 1,10,categoryA,f,genfile1.csv,0,,,,,,,,,0,1,1,0,0,53,53,1,,,,,,,,,,,,,,,,,,,,,,,,f,1,0.33285841700035235,,,,,,,,,,,,,,,,,,999,001,2021_Sep_03_1251,joplin1,2021.2.3,60.25658773518168,
,1 1 1 0 1 1 0 1 1 1,8,categoryA,f,genfile1.csv,1,,,,,,,,,0,1,1,0,0,54,54,13,,,,,,,,,,,,,,,,,,,,,,,,f,1,0.4441858750001302,,,,,,,,,,,,,,,,,,999,001,2021_Sep_03_1251,joplin1,2021.2.3,60.25658773518168,
,1 1 0 0 0 0 0 0 1 1,4,categoryB,j,genfile1.csv,1,,,,,,,,,0,1,1,0,0,55,55,8,,,,,,,,,,,,,,,,,,,,,,,,f,0,1.002252917000078,,,,,,,,,,,,,,,,,,999,001,2021_Sep_03_1251,joplin1,2021.2.3,60.25658773518168,
,,,,,genfile1.csv,,,,,,,,,,0,1,1,0,,,,,,,,,,,,,,,,,,space,1.8065175830001863,,,,,,,,,,,,,,,,,,,,,,,,,,,,,999,001,2021_Sep_03_1251,joplin1,2021.2.3,60.25658773518168,
,,,,,,,,,,,,,,,,,,,,,,,,,,,,,,,,,,,,,,,,,,,,,,,,,None,,,,,,,,,,,,,,,,,999,001,2021_Sep_03_1251,joplin1,2021.2.3,60.25658773518168,
,,,,,,,,,,,,,,,,,,,,,,,,,,,,,,,,,,,,,,,,,,,,,,,,,,None,,,,,,,,,,,,,,,,999,001,2021_Sep_03_1251,joplin1,2021.2.3,60.25658773518168,
,,,,,,,,,,,,,,,,,,,,,,,,,,,,,,,,,,,,,,,,,,,,,,,,,,,0.7,radio,0.3,Are you Hispanic/Latino?,0,None,None,None,None,,,,,,,999,001,2021_Sep_03_1251,joplin1,2021.2.3,60.25658773518168,
,,,,,,,,,,,,,,,,,,,,,,,,,,,,,,,,,,,,,,,,,,,,,,,,,,,0.7,radio,0.3,Are you an American Indian or Alaska Native?,1,None,None,None,None,,,,,,,999,001,2021_Sep_03_1251,joplin1,2021.2.3,60.25658773518168,
,,,,,,,,,,,,,,,,,,,,,,,,,,,,,,,,,,,,,,,,,,,,,,,,,,,0.7,radio,0.3,Are you Asian?,2,None,None,None,None,,,,,,,999,001,2021_Sep_03_1251,joplin1,2021.2.3,60.25658773518168,
,,,,,,,,,,,,,,,,,,,,,,,,,,,,,,,,,,,,,,,,,,,,,,,,,,,0.7,radio,0.3,Are you Black or African American?,3,None,None,None,None,,,,,,,999,001,2021_Sep_03_1251,joplin1,2021.2.3,60.25658773518168,
,,,,,,,,,,,,,,,,,,,,,,,,,,,,,,,,,,,,,,,,,,,,,,,,,,,0.7,radio,0.3,Are you a Native Hawaiian or other Pacific Islander?,4,None,None,None,None,,,,,,,999,001,2021_Sep_03_1251,joplin1,2021.2.3,60.25658773518168,
,,,,,,,,,,,,,,,,,,,,,,,,,,,,,,,,,,,,,,,,,,,,,,,,,,,0.7,radio,0.3,Are you White?,5,None,None,None,None,,,,,,,999,001,2021_Sep_03_1251,joplin1,2021.2.3,60.25658773518168,
,,,,,,,,,,,,,,,,,,,,,,,,,,,,,,,,,,,,,,,,,,,,,,,,,,,0.85,radio,0.3,"Do you have any history of neurological issues such as stroke, head injury or a neurodegenerative disorder?",6,None,None,None,None,,,,,,,999,001,2021_Sep_03_1251,joplin1,2021.2.3,60.25658773518168,
,,,,,,,,,,,,,,,,,,,,,,,,,,,,,,,,,,,,,,,,,,,,,,,,,,,,,,,,,,,,None,,,,,,999,001,2021_Sep_03_1251,joplin1,2021.2.3,60.25658773518168,
,,,,,,,,,,,,,,,,,,,,,,,,,,,,,,,,,,,,,,,,,,,,,,,,,,,,,,,,,,,,,None,,,,,999,001,2021_Sep_03_1251,joplin1,2021.2.3,60.25658773518168,
,,,,,,,,,,,,,,,,,,,,,,,,,,,,,,,,,,,,,,,,,,,,,,,,,,,,,,,,,,,,,,,,None,,999,001,2021_Sep_03_1251,joplin1,2021.2.3,60.25658773518168,
,,,,,,,,,,,,,,,,,,,,,,,,,,,,,,,,,,,,,,,,,,,,,,,,,,,,,,,,,,,,,,,,,,,,,,,,
