train_set,stim_id,sums_feat,category,correct_key,gen_file,train_item,train_runs.thisRepN,train_runs.thisTrialN,train_runs.thisN,train_runs.thisIndex,train_trials.thisRepN,train_trials.thisTrialN,train_trials.thisN,train_trials.thisIndex,test_runs.thisRepN,test_runs.thisTrialN,test_runs.thisN,test_runs.thisIndex,test_trials.thisRepN,test_trials.thisTrialN,test_trials.thisN,test_trials.thisIndex,welcome_key.keys,welcome_key.rt,welcome_key.started,welcome_key.stopped,train_inst1_key.keys,train_inst1_key.rt,train_inst2_key.keys,train_inst2_key.rt,train_begin_key.keys,train_begin_key.rt,train_key.keys,train_key.corr,train_key.rt,break_key.keys,break_key.rt,key_resp.keys,key_resp.rt,test_inst1_key.keys,test_inst1_key.rt,test_inst2_key.keys,test_inst2_key.rt,test_begin_key.keys,test_begin_key.rt,test_key.keys,test_key.corr,test_key.rt,test_end_key.keys,test_end_key.rt,demo_inst1_key.keys,demo_inst1_key.rt,form.questionWidth,form.type,form.respWidth,form.itemText,form.index,form.font,form.markerColor,form.response,form.rt,form_key.keys,form_key.rt,demo_inst2_key.keys,demo_inst2_key.rt,gender_string,age_string,demo4_key.keys,demo4_key.rt,typedWord,participant,session,date,expName,psychopyVersion,frameRate,
,,,,,,,,,,,,,,,,,,,,,,,space,25.26388387500083,13.153935292000824,None,,,,,,,,,,,,,,,,,,,,,,,,,,,,,,,,,,,,,,,,,,,,,999,002,2021_Sep_08_1222,joplin1,2021.2.3,60.01264754519757,
,,,,,,,,,,,,,,,,,,,,,,,,,,,f,9.564242332999129,,,,,,,,,,,,,,,,,,,,,,,,,,,,,,,,,,,,,,,,,,,999,002,2021_Sep_08_1222,joplin1,2021.2.3,60.01264754519757,
,,,,,,,,,,,,,,,,,,,,,,,,,,,,,space,5.063742457999979,,,,,,,,,,,,,,,,,,,,,,,,,,,,,,,,,,,,,,,,,999,002,2021_Sep_08_1222,joplin1,2021.2.3,60.01264754519757,
,,,,,,,,,,,,,,,,,,,,,,,,,,,,,,,space,32.11560137500055,,,,,,,,,,,,,,,,,,,,,,,,,,,,,,,,,,,,,,,999,002,2021_Sep_08_1222,joplin1,2021.2.3,60.01264754519757,
_train_cond.csv,0 0 1 1 1 1 1 1 0 0,6,categoryA,f,,,0,0,0,7,0,0,0,13,,,,,,,,,,,,,,,,,,,f,1,0.03311258400026418,,,,,,,,,,,,,,,,,,,,,,,,,,,,,,,,,,,,999,002,2021_Sep_08_1222,joplin1,2021.2.3,60.01264754519757,
_train_cond.csv,1 1 0 0 0 0 0 0 1 1,4,categoryB,j,,,0,0,0,7,0,1,1,6,,,,,,,,,,,,,,,,,,,j,1,0.4508961250012362,,,,,,,,,,,,,,,,,,,,,,,,,,,,,,,,,,,,999,002,2021_Sep_08_1222,joplin1,2021.2.3,60.01264754519757,
_train_cond.csv,0 0 1 0 0 0 0 1 0 0,2,categoryB,j,,,0,0,0,7,0,2,2,5,,,,,,,,,,,,,,,,,,,f,0,0.14894708300016646,,,,,,,,,,,,,,,,,,,,,,,,,,,,,,,,,,,,999,002,2021_Sep_08_1222,joplin1,2021.2.3,60.01264754519757,
_train_cond.csv,0 0 0 1 0 0 1 0 0 0,2,categoryB,j,,,0,0,0,7,0,3,3,4,,,,,,,,,,,,,,,,,,,f,0,0.6801437499998428,,,,,,,,,,,,,,,,,,,,,,,,,,,,,,,,,,,,999,002,2021_Sep_08_1222,joplin1,2021.2.3,60.01264754519757,
_train_cond.csv,1 0 0 0 0 0 0 0 0 1,2,categoryB,j,,,0,0,0,7,0,4,4,0,,,,,,,,,,,,,,,,,,,f,0,1.0418269580004562,,,,,,,,,,,,,,,,,,,,,,,,,,,,,,,,,,,,999,002,2021_Sep_08_1222,joplin1,2021.2.3,60.01264754519757,
_train_cond.csv,1 1 0 1 1 1 1 0 1 1,8,categoryA,f,,,0,0,0,7,0,5,5,12,,,,,,,,,,,,,,,,,,,f,1,0.9313541249994159,,,,,,,,,,,,,,,,,,,,,,,,,,,,,,,,,,,,999,002,2021_Sep_08_1222,joplin1,2021.2.3,60.01264754519757,
_train_cond.csv,0 1 1 1 1 1 1 1 1 0,8,categoryA,f,,,0,0,0,7,0,6,6,7,,,,,,,,,,,,,,,,,,,j,0,0.8575685420000809,,,,,,,,,,,,,,,,,,,,,,,,,,,,,,,,,,,,999,002,2021_Sep_08_1222,joplin1,2021.2.3,60.01264754519757,
_train_cond.csv,0 1 0 0 0 0 0 0 1 0,2,categoryB,j,,,0,0,0,7,0,7,7,1,,,,,,,,,,,,,,,,,,,f,0,1.0906835830010095,,,,,,,,,,,,,,,,,,,,,,,,,,,,,,,,,,,,999,002,2021_Sep_08_1222,joplin1,2021.2.3,60.01264754519757,
_train_cond.csv,0 0 0 1 1 1 1 0 0 0,4,categoryB,j,,,0,0,0,7,0,8,8,3,,,,,,,,,,,,,,,,,,,j,1,1.4415589589989395,,,,,,,,,,,,,,,,,,,,,,,,,,,,,,,,,,,,999,002,2021_Sep_08_1222,joplin1,2021.2.3,60.01264754519757,
_train_cond.csv,1 1 1 0 1 1 0 1 1 1,8,categoryA,f,,,0,0,0,7,0,9,9,11,,,,,,,,,,,,,,,,,,,j,0,1.5467896249992918,,,,,,,,,,,,,,,,,,,,,,,,,,,,,,,,,,,,999,002,2021_Sep_08_1222,joplin1,2021.2.3,60.01264754519757,
_train_cond.csv,1 0 1 1 1 1 1 1 0 1,8,categoryA,f,,,0,0,0,7,0,10,10,8,,,,,,,,,,,,,,,,,,,f,1,1.5924963750003371,,,,,,,,,,,,,,,,,,,,,,,,,,,,,,,,,,,,999,002,2021_Sep_08_1222,joplin1,2021.2.3,60.01264754519757,
_train_cond.csv,1 1 1 0 0 0 0 1 1 1,6,categoryA,f,,,0,0,0,7,0,11,11,10,,,,,,,,,,,,,,,,,,,j,0,1.5387044580002112,,,,,,,,,,,,,,,,,,,,,,,,,,,,,,,,,,,,999,002,2021_Sep_08_1222,joplin1,2021.2.3,60.01264754519757,
_train_cond.csv,1 1 0 1 0 0 1 0 1 1,6,categoryA,f,,,0,0,0,7,0,12,12,9,,,,,,,,,,,,,,,,,,,None,0,,,,,,,,,,,,,,,,,,,,,,,,,,,,,,,,,,,,,999,002,2021_Sep_08_1222,joplin1,2021.2.3,60.01264754519757,
_train_cond.csv,0 0 1 0 1 1 0 1 0 0,4,categoryB,j,,,0,0,0,7,0,13,13,2,,,,,,,,,,,,,,,,,,,f,0,0.6761229590010771,,,,,,,,,,,,,,,,,,,,,,,,,,,,,,,,,,,,999,002,2021_Sep_08_1222,joplin1,2021.2.3,60.01264754519757,
_train_cond.csv,1 0 0 0 0 0 0 0 0 1,2,categoryB,j,,,0,0,0,7,1,0,14,0,,,,,,,,,,,,,,,,,,,j,1,0.7897567500003788,,,,,,,,,,,,,,,,,,,,,,,,,,,,,,,,,,,,999,002,2021_Sep_08_1222,joplin1,2021.2.3,60.01264754519757,
_train_cond.csv,0 0 1 1 1 1 1 1 0 0,6,categoryA,f,,,0,0,0,7,1,1,15,13,,,,,,,,,,,,,,,,,,,j,0,0.49869520799984457,,,,,,,,,,,,,,,,,,,,,,,,,,,,,,,,,,,,999,002,2021_Sep_08_1222,joplin1,2021.2.3,60.01264754519757,
_train_cond.csv,0 1 1 1 1 1 1 1 1 0,8,categoryA,f,,,0,0,0,7,1,2,16,7,,,,,,,,,,,,,,,,,,,f,1,0.763725250000789,,,,,,,,,,,,,,,,,,,,,,,,,,,,,,,,,,,,999,002,2021_Sep_08_1222,joplin1,2021.2.3,60.01264754519757,
_train_cond.csv,0 0 1 0 1 1 0 1 0 0,4,categoryB,j,,,0,0,0,7,1,3,17,2,,,,,,,,,,,,,,,,,,,j,1,0.46720204099983675,,,,,,,,,,,,,,,,,,,,,,,,,,,,,,,,,,,,999,002,2021_Sep_08_1222,joplin1,2021.2.3,60.01264754519757,
_train_cond.csv,1 0 1 1 1 1 1 1 0 1,8,categoryA,f,,,0,0,0,7,1,4,18,8,,,,,,,,,,,,,,,,,,,f,1,0.7027724159997888,,,,,,,,,,,,,,,,,,,,,,,,,,,,,,,,,,,,999,002,2021_Sep_08_1222,joplin1,2021.2.3,60.01264754519757,
_train_cond.csv,0 0 0 1 0 0 1 0 0 0,2,categoryB,j,,,0,0,0,7,1,5,19,4,,,,,,,,,,,,,,,,,,,f,0,0.479432000000088,,,,,,,,,,,,,,,,,,,,,,,,,,,,,,,,,,,,999,002,2021_Sep_08_1222,joplin1,2021.2.3,60.01264754519757,
_train_cond.csv,0 1 0 0 0 0 0 0 1 0,2,categoryB,j,,,0,0,0,7,1,6,20,1,,,,,,,,,,,,,,,,,,,j,1,0.4907391250017099,,,,,,,,,,,,,,,,,,,,,,,,,,,,,,,,,,,,999,002,2021_Sep_08_1222,joplin1,2021.2.3,60.01264754519757,
_train_cond.csv,0 0 1 0 0 0 0 1 0 0,2,categoryB,j,,,0,0,0,7,1,7,21,5,,,,,,,,,,,,,,,,,,,j,1,0.3706923749996349,,,,,,,,,,,,,,,,,,,,,,,,,,,,,,,,,,,,999,002,2021_Sep_08_1222,joplin1,2021.2.3,60.01264754519757,
_train_cond.csv,1 1 0 1 0 0 1 0 1 1,6,categoryA,f,,,0,0,0,7,1,8,22,9,,,,,,,,,,,,,,,,,,,f,1,0.6343092090010032,,,,,,,,,,,,,,,,,,,,,,,,,,,,,,,,,,,,999,002,2021_Sep_08_1222,joplin1,2021.2.3,60.01264754519757,
_train_cond.csv,0 0 0 1 1 1 1 0 0 0,4,categoryB,j,,,0,0,0,7,1,9,23,3,,,,,,,,,,,,,,,,,,,j,1,0.5094102500006557,,,,,,,,,,,,,,,,,,,,,,,,,,,,,,,,,,,,999,002,2021_Sep_08_1222,joplin1,2021.2.3,60.01264754519757,
_train_cond.csv,1 1 1 0 1 1 0 1 1 1,8,categoryA,f,,,0,0,0,7,1,10,24,11,,,,,,,,,,,,,,,,,,,j,0,0.5823338329992112,,,,,,,,,,,,,,,,,,,,,,,,,,,,,,,,,,,,999,002,2021_Sep_08_1222,joplin1,2021.2.3,60.01264754519757,
_train_cond.csv,1 1 0 1 1 1 1 0 1 1,8,categoryA,f,,,0,0,0,7,1,11,25,12,,,,,,,,,,,,,,,,,,,j,0,1.1321791669997765,,,,,,,,,,,,,,,,,,,,,,,,,,,,,,,,,,,,999,002,2021_Sep_08_1222,joplin1,2021.2.3,60.01264754519757,
_train_cond.csv,1 1 1 0 0 0 0 1 1 1,6,categoryA,f,,,0,0,0,7,1,12,26,10,,,,,,,,,,,,,,,,,,,f,1,0.6128947500001232,,,,,,,,,,,,,,,,,,,,,,,,,,,,,,,,,,,,999,002,2021_Sep_08_1222,joplin1,2021.2.3,60.01264754519757,
_train_cond.csv,1 1 0 0 0 0 0 0 1 1,4,categoryB,j,,,0,0,0,7,1,13,27,6,,,,,,,,,,,,,,,,,,,f,0,0.9139276669993706,,,,,,,,,,,,,,,,,,,,,,,,,,,,,,,,,,,,999,002,2021_Sep_08_1222,joplin1,2021.2.3,60.01264754519757,
_train_cond.csv,0 0 0 1 0 0 1 0 0 0,2,categoryB,j,,,0,0,0,7,2,0,28,4,,,,,,,,,,,,,,,,,,,j,1,0.9627201660005085,,,,,,,,,,,,,,,,,,,,,,,,,,,,,,,,,,,,999,002,2021_Sep_08_1222,joplin1,2021.2.3,60.01264754519757,
_train_cond.csv,0 1 0 0 0 0 0 0 1 0,2,categoryB,j,,,0,0,0,7,2,1,29,1,,,,,,,,,,,,,,,,,,,f,0,0.674121957999887,,,,,,,,,,,,,,,,,,,,,,,,,,,,,,,,,,,,999,002,2021_Sep_08_1222,joplin1,2021.2.3,60.01264754519757,
_train_cond.csv,1 1 0 1 0 0 1 0 1 1,6,categoryA,f,,,0,0,0,7,2,2,30,9,,,,,,,,,,,,,,,,,,,j,0,0.7250496249998832,,,,,,,,,,,,,,,,,,,,,,,,,,,,,,,,,,,,999,002,2021_Sep_08_1222,joplin1,2021.2.3,60.01264754519757,
_train_cond.csv,1 0 0 0 0 0 0 0 0 1,2,categoryB,j,,,0,0,0,7,2,3,31,0,,,,,,,,,,,,,,,,,,,f,0,0.7329052499990212,,,,,,,,,,,,,,,,,,,,,,,,,,,,,,,,,,,,999,002,2021_Sep_08_1222,joplin1,2021.2.3,60.01264754519757,
_train_cond.csv,0 0 1 0 1 1 0 1 0 0,4,categoryB,j,,,0,0,0,7,2,4,32,2,,,,,,,,,,,,,,,,,,,j,1,0.6362346669993713,,,,,,,,,,,,,,,,,,,,,,,,,,,,,,,,,,,,999,002,2021_Sep_08_1222,joplin1,2021.2.3,60.01264754519757,
_train_cond.csv,0 0 1 0 0 0 0 1 0 0,2,categoryB,j,,,0,0,0,7,2,5,33,5,,,,,,,,,,,,,,,,,,,j,1,0.32063224999910744,,,,,,,,,,,,,,,,,,,,,,,,,,,,,,,,,,,,999,002,2021_Sep_08_1222,joplin1,2021.2.3,60.01264754519757,
_train_cond.csv,1 1 1 0 0 0 0 1 1 1,6,categoryA,f,,,0,0,0,7,2,6,34,10,,,,,,,,,,,,,,,,,,,f,1,0.8413220000002184,,,,,,,,,,,,,,,,,,,,,,,,,,,,,,,,,,,,999,002,2021_Sep_08_1222,joplin1,2021.2.3,60.01264754519757,
_train_cond.csv,0 1 1 1 1 1 1 1 1 0,8,categoryA,f,,,0,0,0,7,2,7,35,7,,,,,,,,,,,,,,,,,,,f,1,1.5568849999999657,,,,,,,,,,,,,,,,,,,,,,,,,,,,,,,,,,,,999,002,2021_Sep_08_1222,joplin1,2021.2.3,60.01264754519757,
_train_cond.csv,0 0 1 1 1 1 1 1 0 0,6,categoryA,f,,,0,0,0,7,2,8,36,13,,,,,,,,,,,,,,,,,,,j,0,0.7082594580006116,,,,,,,,,,,,,,,,,,,,,,,,,,,,,,,,,,,,999,002,2021_Sep_08_1222,joplin1,2021.2.3,60.01264754519757,
_train_cond.csv,1 1 0 1 1 1 1 0 1 1,8,categoryA,f,,,0,0,0,7,2,9,37,12,,,,,,,,,,,,,,,,,,,f,1,0.605237333000332,,,,,,,,,,,,,,,,,,,,,,,,,,,,,,,,,,,,999,002,2021_Sep_08_1222,joplin1,2021.2.3,60.01264754519757,
_train_cond.csv,1 0 1 1 1 1 1 1 0 1,8,categoryA,f,,,0,0,0,7,2,10,38,8,,,,,,,,,,,,,,,,,,,f,1,0.5852724590004073,,,,,,,,,,,,,,,,,,,,,,,,,,,,,,,,,,,,999,002,2021_Sep_08_1222,joplin1,2021.2.3,60.01264754519757,
_train_cond.csv,1 1 1 0 1 1 0 1 1 1,8,categoryA,f,,,0,0,0,7,2,11,39,11,,,,,,,,,,,,,,,,,,,j,0,0.42359495900018374,,,,,,,,,,,,,,,,,,,,,,,,,,,,,,,,,,,,999,002,2021_Sep_08_1222,joplin1,2021.2.3,60.01264754519757,
_train_cond.csv,0 0 0 1 1 1 1 0 0 0,4,categoryB,j,,,0,0,0,7,2,12,40,3,,,,,,,,,,,,,,,,,,,f,0,0.5077917500002513,,,,,,,,,,,,,,,,,,,,,,,,,,,,,,,,,,,,999,002,2021_Sep_08_1222,joplin1,2021.2.3,60.01264754519757,
_train_cond.csv,1 1 0 0 0 0 0 0 1 1,4,categoryB,j,,,0,0,0,7,2,13,41,6,,,,,,,,,,,,,,,,,,,j,1,0.40392337499906716,,,,,,,,,,,,,,,,,,,,,,,,,,,,,,,,,,,,999,002,2021_Sep_08_1222,joplin1,2021.2.3,60.01264754519757,
_train_cond.csv,,,,,,,0,0,0,7,,,,,,,,,,,,,,,,,,,,,,,,,,space,2.913624541999525,,,,,,,,,,,,,,,,,,,,,,,,,,,,,,,,,,999,002,2021_Sep_08_1222,joplin1,2021.2.3,60.01264754519757,
_train_cond.csv,1 0 1 1 1 1 1 1 0 1,8,categoryA,f,,,0,1,1,1,0,0,0,8,,,,,,,,,,,,,,,,,,,f,1,0.560967833000177,,,,,,,,,,,,,,,,,,,,,,,,,,,,,,,,,,,,999,002,2021_Sep_08_1222,joplin1,2021.2.3,60.01264754519757,
_train_cond.csv,0 1 0 0 0 0 0 0 1 0,2,categoryB,j,,,0,1,1,1,0,1,1,1,,,,,,,,,,,,,,,,,,,j,1,0.3914686669995717,,,,,,,,,,,,,,,,,,,,,,,,,,,,,,,,,,,,999,002,2021_Sep_08_1222,joplin1,2021.2.3,60.01264754519757,
_train_cond.csv,0 0 1 0 1 1 0 1 0 0,4,categoryB,j,,,0,1,1,1,0,2,2,2,,,,,,,,,,,,,,,,,,,j,1,0.7251914999997098,,,,,,,,,,,,,,,,,,,,,,,,,,,,,,,,,,,,999,002,2021_Sep_08_1222,joplin1,2021.2.3,60.01264754519757,
_train_cond.csv,0 1 1 1 1 1 1 1 1 0,8,categoryA,f,,,0,1,1,1,0,3,3,7,,,,,,,,,,,,,,,,,,,f,1,0.8206673339991539,,,,,,,,,,,,,,,,,,,,,,,,,,,,,,,,,,,,999,002,2021_Sep_08_1222,joplin1,2021.2.3,60.01264754519757,
_train_cond.csv,1 0 0 0 0 0 0 0 0 1,2,categoryB,j,,,0,1,1,1,0,4,4,0,,,,,,,,,,,,,,,,,,,j,1,0.8646752080003353,,,,,,,,,,,,,,,,,,,,,,,,,,,,,,,,,,,,999,002,2021_Sep_08_1222,joplin1,2021.2.3,60.01264754519757,
_train_cond.csv,0 0 0 1 0 0 1 0 0 0,2,categoryB,j,,,0,1,1,1,0,5,5,4,,,,,,,,,,,,,,,,,,,f,0,1.0755438750002213,,,,,,,,,,,,,,,,,,,,,,,,,,,,,,,,,,,,999,002,2021_Sep_08_1222,joplin1,2021.2.3,60.01264754519757,
_train_cond.csv,1 1 0 0 0 0 0 0 1 1,4,categoryB,j,,,0,1,1,1,0,6,6,6,,,,,,,,,,,,,,,,,,,f,0,0.7582828750000772,,,,,,,,,,,,,,,,,,,,,,,,,,,,,,,,,,,,999,002,2021_Sep_08_1222,joplin1,2021.2.3,60.01264754519757,
_train_cond.csv,0 0 1 0 0 0 0 1 0 0,2,categoryB,j,,,0,1,1,1,0,7,7,5,,,,,,,,,,,,,,,,,,,j,1,0.7972546250002779,,,,,,,,,,,,,,,,,,,,,,,,,,,,,,,,,,,,999,002,2021_Sep_08_1222,joplin1,2021.2.3,60.01264754519757,
_train_cond.csv,1 1 1 0 0 0 0 1 1 1,6,categoryA,f,,,0,1,1,1,0,8,8,10,,,,,,,,,,,,,,,,,,,j,0,0.9143307080012164,,,,,,,,,,,,,,,,,,,,,,,,,,,,,,,,,,,,999,002,2021_Sep_08_1222,joplin1,2021.2.3,60.01264754519757,
_train_cond.csv,0 0 0 1 1 1 1 0 0 0,4,categoryB,j,,,0,1,1,1,0,9,9,3,,,,,,,,,,,,,,,,,,,j,1,0.6290230419999716,,,,,,,,,,,,,,,,,,,,,,,,,,,,,,,,,,,,999,002,2021_Sep_08_1222,joplin1,2021.2.3,60.01264754519757,
_train_cond.csv,1 1 1 0 1 1 0 1 1 1,8,categoryA,f,,,0,1,1,1,0,10,10,11,,,,,,,,,,,,,,,,,,,f,1,1.135292125001797,,,,,,,,,,,,,,,,,,,,,,,,,,,,,,,,,,,,999,002,2021_Sep_08_1222,joplin1,2021.2.3,60.01264754519757,
_train_cond.csv,0 0 1 1 1 1 1 1 0 0,6,categoryA,f,,,0,1,1,1,0,11,11,13,,,,,,,,,,,,,,,,,,,j,0,0.8068894169991836,,,,,,,,,,,,,,,,,,,,,,,,,,,,,,,,,,,,999,002,2021_Sep_08_1222,joplin1,2021.2.3,60.01264754519757,
_train_cond.csv,1 1 0 1 0 0 1 0 1 1,6,categoryA,f,,,0,1,1,1,0,12,12,9,,,,,,,,,,,,,,,,,,,f,1,0.6926012499989156,,,,,,,,,,,,,,,,,,,,,,,,,,,,,,,,,,,,999,002,2021_Sep_08_1222,joplin1,2021.2.3,60.01264754519757,
_train_cond.csv,1 1 0 1 1 1 1 0 1 1,8,categoryA,f,,,0,1,1,1,0,13,13,12,,,,,,,,,,,,,,,,,,,f,1,0.7106942500013247,,,,,,,,,,,,,,,,,,,,,,,,,,,,,,,,,,,,999,002,2021_Sep_08_1222,joplin1,2021.2.3,60.01264754519757,
_train_cond.csv,1 1 1 0 0 0 0 1 1 1,6,categoryA,f,,,0,1,1,1,1,0,14,10,,,,,,,,,,,,,,,,,,,f,1,1.2410632920000353,,,,,,,,,,,,,,,,,,,,,,,,,,,,,,,,,,,,999,002,2021_Sep_08_1222,joplin1,2021.2.3,60.01264754519757,
_train_cond.csv,1 1 0 1 1 1 1 0 1 1,8,categoryA,f,,,0,1,1,1,1,1,15,12,,,,,,,,,,,,,,,,,,,f,1,1.4296158329998434,,,,,,,,,,,,,,,,,,,,,,,,,,,,,,,,,,,,999,002,2021_Sep_08_1222,joplin1,2021.2.3,60.01264754519757,
_train_cond.csv,1 1 0 0 0 0 0 0 1 1,4,categoryB,j,,,0,1,1,1,1,2,16,6,,,,,,,,,,,,,,,,,,,f,0,0.9949928329988325,,,,,,,,,,,,,,,,,,,,,,,,,,,,,,,,,,,,999,002,2021_Sep_08_1222,joplin1,2021.2.3,60.01264754519757,
_train_cond.csv,0 0 0 1 1 1 1 0 0 0,4,categoryB,j,,,0,1,1,1,1,3,17,3,,,,,,,,,,,,,,,,,,,j,1,0.9210449589991185,,,,,,,,,,,,,,,,,,,,,,,,,,,,,,,,,,,,999,002,2021_Sep_08_1222,joplin1,2021.2.3,60.01264754519757,
_train_cond.csv,1 0 0 0 0 0 0 0 0 1,2,categoryB,j,,,0,1,1,1,1,4,18,0,,,,,,,,,,,,,,,,,,,f,0,0.9119484160000866,,,,,,,,,,,,,,,,,,,,,,,,,,,,,,,,,,,,999,002,2021_Sep_08_1222,joplin1,2021.2.3,60.01264754519757,
_train_cond.csv,0 1 0 0 0 0 0 0 1 0,2,categoryB,j,,,0,1,1,1,1,5,19,1,,,,,,,,,,,,,,,,,,,j,1,1.7047688329985249,,,,,,,,,,,,,,,,,,,,,,,,,,,,,,,,,,,,999,002,2021_Sep_08_1222,joplin1,2021.2.3,60.01264754519757,
_train_cond.csv,0 0 1 0 1 1 0 1 0 0,4,categoryB,j,,,0,1,1,1,1,6,20,2,,,,,,,,,,,,,,,,,,,j,1,0.9771502499988856,,,,,,,,,,,,,,,,,,,,,,,,,,,,,,,,,,,,999,002,2021_Sep_08_1222,joplin1,2021.2.3,60.01264754519757,
_train_cond.csv,1 0 1 1 1 1 1 1 0 1,8,categoryA,f,,,0,1,1,1,1,7,21,8,,,,,,,,,,,,,,,,,,,f,1,0.7119902500016906,,,,,,,,,,,,,,,,,,,,,,,,,,,,,,,,,,,,999,002,2021_Sep_08_1222,joplin1,2021.2.3,60.01264754519757,
_train_cond.csv,1 1 1 0 1 1 0 1 1 1,8,categoryA,f,,,0,1,1,1,1,8,22,11,,,,,,,,,,,,,,,,,,,j,0,1.4550424159988324,,,,,,,,,,,,,,,,,,,,,,,,,,,,,,,,,,,,999,002,2021_Sep_08_1222,joplin1,2021.2.3,60.01264754519757,
_train_cond.csv,0 0 0 1 0 0 1 0 0 0,2,categoryB,j,,,0,1,1,1,1,9,23,4,,,,,,,,,,,,,,,,,,,j,1,0.32223837499986985,,,,,,,,,,,,,,,,,,,,,,,,,,,,,,,,,,,,999,002,2021_Sep_08_1222,joplin1,2021.2.3,60.01264754519757,
_train_cond.csv,0 0 1 1 1 1 1 1 0 0,6,categoryA,f,,,0,1,1,1,1,10,24,13,,,,,,,,,,,,,,,,,,,j,0,0.35316899999997986,,,,,,,,,,,,,,,,,,,,,,,,,,,,,,,,,,,,999,002,2021_Sep_08_1222,joplin1,2021.2.3,60.01264754519757,
_train_cond.csv,0 0 1 0 0 0 0 1 0 0,2,categoryB,j,,,0,1,1,1,1,11,25,5,,,,,,,,,,,,,,,,,,,j,1,0.27966141600154515,,,,,,,,,,,,,,,,,,,,,,,,,,,,,,,,,,,,999,002,2021_Sep_08_1222,joplin1,2021.2.3,60.01264754519757,
_train_cond.csv,0 1 1 1 1 1 1 1 1 0,8,categoryA,f,,,0,1,1,1,1,12,26,7,,,,,,,,,,,,,,,,,,,j,0,0.9933636660007323,,,,,,,,,,,,,,,,,,,,,,,,,,,,,,,,,,,,999,002,2021_Sep_08_1222,joplin1,2021.2.3,60.01264754519757,
_train_cond.csv,1 1 0 1 0 0 1 0 1 1,6,categoryA,f,,,0,1,1,1,1,13,27,9,,,,,,,,,,,,,,,,,,,f,1,0.5345732919995498,,,,,,,,,,,,,,,,,,,,,,,,,,,,,,,,,,,,999,002,2021_Sep_08_1222,joplin1,2021.2.3,60.01264754519757,
_train_cond.csv,0 0 0 1 0 0 1 0 0 0,2,categoryB,j,,,0,1,1,1,2,0,28,4,,,,,,,,,,,,,,,,,,,j,1,1.4957767910000257,,,,,,,,,,,,,,,,,,,,,,,,,,,,,,,,,,,,999,002,2021_Sep_08_1222,joplin1,2021.2.3,60.01264754519757,
_train_cond.csv,0 1 0 0 0 0 0 0 1 0,2,categoryB,j,,,0,1,1,1,2,1,29,1,,,,,,,,,,,,,,,,,,,j,1,0.4569435829998838,,,,,,,,,,,,,,,,,,,,,,,,,,,,,,,,,,,,999,002,2021_Sep_08_1222,joplin1,2021.2.3,60.01264754519757,
_train_cond.csv,1 1 1 0 1 1 0 1 1 1,8,categoryA,f,,,0,1,1,1,2,2,30,11,,,,,,,,,,,,,,,,,,,f,1,1.0676769159999822,,,,,,,,,,,,,,,,,,,,,,,,,,,,,,,,,,,,999,002,2021_Sep_08_1222,joplin1,2021.2.3,60.01264754519757,
_train_cond.csv,1 1 0 1 0 0 1 0 1 1,6,categoryA,f,,,0,1,1,1,2,3,31,9,,,,,,,,,,,,,,,,,,,f,1,0.6376208750007208,,,,,,,,,,,,,,,,,,,,,,,,,,,,,,,,,,,,999,002,2021_Sep_08_1222,joplin1,2021.2.3,60.01264754519757,
_train_cond.csv,0 0 0 1 1 1 1 0 0 0,4,categoryB,j,,,0,1,1,1,2,4,32,3,,,,,,,,,,,,,,,,,,,j,1,0.2335519159987598,,,,,,,,,,,,,,,,,,,,,,,,,,,,,,,,,,,,999,002,2021_Sep_08_1222,joplin1,2021.2.3,60.01264754519757,
_train_cond.csv,0 0 1 1 1 1 1 1 0 0,6,categoryA,f,,,0,1,1,1,2,5,33,13,,,,,,,,,,,,,,,,,,,j,0,0.2133803340002487,,,,,,,,,,,,,,,,,,,,,,,,,,,,,,,,,,,,999,002,2021_Sep_08_1222,joplin1,2021.2.3,60.01264754519757,
_train_cond.csv,1 0 0 0 0 0 0 0 0 1,2,categoryB,j,,,0,1,1,1,2,6,34,0,,,,,,,,,,,,,,,,,,,f,0,1.1783077499985666,,,,,,,,,,,,,,,,,,,,,,,,,,,,,,,,,,,,999,002,2021_Sep_08_1222,joplin1,2021.2.3,60.01264754519757,
_train_cond.csv,1 1 0 0 0 0 0 0 1 1,4,categoryB,j,,,0,1,1,1,2,7,35,6,,,,,,,,,,,,,,,,,,,f,0,0.24025766700106033,,,,,,,,,,,,,,,,,,,,,,,,,,,,,,,,,,,,999,002,2021_Sep_08_1222,joplin1,2021.2.3,60.01264754519757,
_train_cond.csv,0 0 1 0 0 0 0 1 0 0,2,categoryB,j,,,0,1,1,1,2,8,36,5,,,,,,,,,,,,,,,,,,,j,1,0.2526631250002538,,,,,,,,,,,,,,,,,,,,,,,,,,,,,,,,,,,,999,002,2021_Sep_08_1222,joplin1,2021.2.3,60.01264754519757,
_train_cond.csv,0 1 1 1 1 1 1 1 1 0,8,categoryA,f,,,0,1,1,1,2,9,37,7,,,,,,,,,,,,,,,,,,,f,1,1.150883750000503,,,,,,,,,,,,,,,,,,,,,,,,,,,,,,,,,,,,999,002,2021_Sep_08_1222,joplin1,2021.2.3,60.01264754519757,
_train_cond.csv,1 1 0 1 1 1 1 0 1 1,8,categoryA,f,,,0,1,1,1,2,10,38,12,,,,,,,,,,,,,,,,,,,f,1,1.4951577920001,,,,,,,,,,,,,,,,,,,,,,,,,,,,,,,,,,,,999,002,2021_Sep_08_1222,joplin1,2021.2.3,60.01264754519757,
_train_cond.csv,1 0 1 1 1 1 1 1 0 1,8,categoryA,f,,,0,1,1,1,2,11,39,8,,,,,,,,,,,,,,,,,,,f,1,0.37641016700035834,,,,,,,,,,,,,,,,,,,,,,,,,,,,,,,,,,,,999,002,2021_Sep_08_1222,joplin1,2021.2.3,60.01264754519757,
_train_cond.csv,1 1 1 0 0 0 0 1 1 1,6,categoryA,f,,,0,1,1,1,2,12,40,10,,,,,,,,,,,,,,,,,,,f,1,0.3669929579991731,,,,,,,,,,,,,,,,,,,,,,,,,,,,,,,,,,,,999,002,2021_Sep_08_1222,joplin1,2021.2.3,60.01264754519757,
_train_cond.csv,0 0 1 0 1 1 0 1 0 0,4,categoryB,j,,,0,1,1,1,2,13,41,2,,,,,,,,,,,,,,,,,,,j,1,0.13389220799945178,,,,,,,,,,,,,,,,,,,,,,,,,,,,,,,,,,,,999,002,2021_Sep_08_1222,joplin1,2021.2.3,60.01264754519757,
_train_cond.csv,,,,,,,0,1,1,1,,,,,,,,,,,,,,,,,,,,,,,,,,space,2.2225584169991635,,,,,,,,,,,,,,,,,,,,,,,,,,,,,,,,,,999,002,2021_Sep_08_1222,joplin1,2021.2.3,60.01264754519757,
_train_cond.csv,1 1 0 0 0 0 0 0 1 1,4,categoryB,j,,,0,2,2,6,0,0,0,6,,,,,,,,,,,,,,,,,,,f,0,0.7380144159997144,,,,,,,,,,,,,,,,,,,,,,,,,,,,,,,,,,,,999,002,2021_Sep_08_1222,joplin1,2021.2.3,60.01264754519757,
_train_cond.csv,1 1 0 1 0 0 1 0 1 1,6,categoryA,f,,,0,2,2,6,0,1,1,9,,,,,,,,,,,,,,,,,,,f,1,0.601931125000192,,,,,,,,,,,,,,,,,,,,,,,,,,,,,,,,,,,,999,002,2021_Sep_08_1222,joplin1,2021.2.3,60.01264754519757,
_train_cond.csv,1 1 1 0 0 0 0 1 1 1,6,categoryA,f,,,0,2,2,6,0,2,2,10,,,,,,,,,,,,,,,,,,,f,1,0.8243679169991083,,,,,,,,,,,,,,,,,,,,,,,,,,,,,,,,,,,,999,002,2021_Sep_08_1222,joplin1,2021.2.3,60.01264754519757,
_train_cond.csv,0 0 1 0 1 1 0 1 0 0,4,categoryB,j,,,0,2,2,6,0,3,3,2,,,,,,,,,,,,,,,,,,,j,1,0.42886533300043084,,,,,,,,,,,,,,,,,,,,,,,,,,,,,,,,,,,,999,002,2021_Sep_08_1222,joplin1,2021.2.3,60.01264754519757,
_train_cond.csv,0 0 0 1 0 0 1 0 0 0,2,categoryB,j,,,0,2,2,6,0,4,4,4,,,,,,,,,,,,,,,,,,,j,1,0.6893025409990514,,,,,,,,,,,,,,,,,,,,,,,,,,,,,,,,,,,,999,002,2021_Sep_08_1222,joplin1,2021.2.3,60.01264754519757,
_train_cond.csv,0 0 0 1 1 1 1 0 0 0,4,categoryB,j,,,0,2,2,6,0,5,5,3,,,,,,,,,,,,,,,,,,,j,1,0.6660037910005485,,,,,,,,,,,,,,,,,,,,,,,,,,,,,,,,,,,,999,002,2021_Sep_08_1222,joplin1,2021.2.3,60.01264754519757,
_train_cond.csv,0 1 1 1 1 1 1 1 1 0,8,categoryA,f,,,0,2,2,6,0,6,6,7,,,,,,,,,,,,,,,,,,,j,0,0.7491915419996076,,,,,,,,,,,,,,,,,,,,,,,,,,,,,,,,,,,,999,002,2021_Sep_08_1222,joplin1,2021.2.3,60.01264754519757,
_train_cond.csv,0 0 1 1 1 1 1 1 0 0,6,categoryA,f,,,0,2,2,6,0,7,7,13,,,,,,,,,,,,,,,,,,,j,0,0.6208467920005205,,,,,,,,,,,,,,,,,,,,,,,,,,,,,,,,,,,,999,002,2021_Sep_08_1222,joplin1,2021.2.3,60.01264754519757,
_train_cond.csv,1 1 1 0 1 1 0 1 1 1,8,categoryA,f,,,0,2,2,6,0,8,8,11,,,,,,,,,,,,,,,,,,,f,1,0.536642707998908,,,,,,,,,,,,,,,,,,,,,,,,,,,,,,,,,,,,999,002,2021_Sep_08_1222,joplin1,2021.2.3,60.01264754519757,
_train_cond.csv,0 1 0 0 0 0 0 0 1 0,2,categoryB,j,,,0,2,2,6,0,9,9,1,,,,,,,,,,,,,,,,,,,j,1,0.511712625000655,,,,,,,,,,,,,,,,,,,,,,,,,,,,,,,,,,,,999,002,2021_Sep_08_1222,joplin1,2021.2.3,60.01264754519757,
_train_cond.csv,1 0 1 1 1 1 1 1 0 1,8,categoryA,f,,,0,2,2,6,0,10,10,8,,,,,,,,,,,,,,,,,,,f,1,0.27301920799982327,,,,,,,,,,,,,,,,,,,,,,,,,,,,,,,,,,,,999,002,2021_Sep_08_1222,joplin1,2021.2.3,60.01264754519757,
_train_cond.csv,1 0 0 0 0 0 0 0 0 1,2,categoryB,j,,,0,2,2,6,0,11,11,0,,,,,,,,,,,,,,,,,,,f,0,0.8737849999997707,,,,,,,,,,,,,,,,,,,,,,,,,,,,,,,,,,,,999,002,2021_Sep_08_1222,joplin1,2021.2.3,60.01264754519757,
_train_cond.csv,1 1 0 1 1 1 1 0 1 1,8,categoryA,f,,,0,2,2,6,0,12,12,12,,,,,,,,,,,,,,,,,,,j,0,0.8345894169997337,,,,,,,,,,,,,,,,,,,,,,,,,,,,,,,,,,,,999,002,2021_Sep_08_1222,joplin1,2021.2.3,60.01264754519757,
_train_cond.csv,0 0 1 0 0 0 0 1 0 0,2,categoryB,j,,,0,2,2,6,0,13,13,5,,,,,,,,,,,,,,,,,,,f,0,0.5269547919997422,,,,,,,,,,,,,,,,,,,,,,,,,,,,,,,,,,,,999,002,2021_Sep_08_1222,joplin1,2021.2.3,60.01264754519757,
_train_cond.csv,1 1 0 0 0 0 0 0 1 1,4,categoryB,j,,,0,2,2,6,1,0,14,6,,,,,,,,,,,,,,,,,,,j,1,0.39856970899927546,,,,,,,,,,,,,,,,,,,,,,,,,,,,,,,,,,,,999,002,2021_Sep_08_1222,joplin1,2021.2.3,60.01264754519757,
_train_cond.csv,1 1 1 0 0 0 0 1 1 1,6,categoryA,f,,,0,2,2,6,1,1,15,10,,,,,,,,,,,,,,,,,,,f,1,1.0610645420001674,,,,,,,,,,,,,,,,,,,,,,,,,,,,,,,,,,,,999,002,2021_Sep_08_1222,joplin1,2021.2.3,60.01264754519757,
_train_cond.csv,1 1 0 1 0 0 1 0 1 1,6,categoryA,f,,,0,2,2,6,1,2,16,9,,,,,,,,,,,,,,,,,,,j,0,0.9359737089998816,,,,,,,,,,,,,,,,,,,,,,,,,,,,,,,,,,,,999,002,2021_Sep_08_1222,joplin1,2021.2.3,60.01264754519757,
_train_cond.csv,0 0 1 0 1 1 0 1 0 0,4,categoryB,j,,,0,2,2,6,1,3,17,2,,,,,,,,,,,,,,,,,,,f,0,0.5921705829987332,,,,,,,,,,,,,,,,,,,,,,,,,,,,,,,,,,,,999,002,2021_Sep_08_1222,joplin1,2021.2.3,60.01264754519757,
_train_cond.csv,0 0 0 1 1 1 1 0 0 0,4,categoryB,j,,,0,2,2,6,1,4,18,3,,,,,,,,,,,,,,,,,,,j,1,0.5395069579990377,,,,,,,,,,,,,,,,,,,,,,,,,,,,,,,,,,,,999,002,2021_Sep_08_1222,joplin1,2021.2.3,60.01264754519757,
_train_cond.csv,0 0 1 0 0 0 0 1 0 0,2,categoryB,j,,,0,2,2,6,1,5,19,5,,,,,,,,,,,,,,,,,,,j,1,0.5389497079995635,,,,,,,,,,,,,,,,,,,,,,,,,,,,,,,,,,,,999,002,2021_Sep_08_1222,joplin1,2021.2.3,60.01264754519757,
_train_cond.csv,1 1 0 1 1 1 1 0 1 1,8,categoryA,f,,,0,2,2,6,1,6,20,12,,,,,,,,,,,,,,,,,,,j,0,0.44190104200060887,,,,,,,,,,,,,,,,,,,,,,,,,,,,,,,,,,,,999,002,2021_Sep_08_1222,joplin1,2021.2.3,60.01264754519757,
_train_cond.csv,1 0 0 0 0 0 0 0 0 1,2,categoryB,j,,,0,2,2,6,1,7,21,0,,,,,,,,,,,,,,,,,,,f,0,0.30068849999952363,,,,,,,,,,,,,,,,,,,,,,,,,,,,,,,,,,,,999,002,2021_Sep_08_1222,joplin1,2021.2.3,60.01264754519757,
_train_cond.csv,0 1 1 1 1 1 1 1 1 0,8,categoryA,f,,,0,2,2,6,1,8,22,7,,,,,,,,,,,,,,,,,,,j,0,0.29481462500007183,,,,,,,,,,,,,,,,,,,,,,,,,,,,,,,,,,,,999,002,2021_Sep_08_1222,joplin1,2021.2.3,60.01264754519757,
_train_cond.csv,0 1 0 0 0 0 0 0 1 0,2,categoryB,j,,,0,2,2,6,1,9,23,1,,,,,,,,,,,,,,,,,,,j,1,0.47048608399927616,,,,,,,,,,,,,,,,,,,,,,,,,,,,,,,,,,,,999,002,2021_Sep_08_1222,joplin1,2021.2.3,60.01264754519757,
_train_cond.csv,1 0 1 1 1 1 1 1 0 1,8,categoryA,f,,,0,2,2,6,1,10,24,8,,,,,,,,,,,,,,,,,,,f,1,0.3930346670003928,,,,,,,,,,,,,,,,,,,,,,,,,,,,,,,,,,,,999,002,2021_Sep_08_1222,joplin1,2021.2.3,60.01264754519757,
_train_cond.csv,0 0 1 1 1 1 1 1 0 0,6,categoryA,f,,,0,2,2,6,1,11,25,13,,,,,,,,,,,,,,,,,,,j,0,0.3182256249983766,,,,,,,,,,,,,,,,,,,,,,,,,,,,,,,,,,,,999,002,2021_Sep_08_1222,joplin1,2021.2.3,60.01264754519757,
_train_cond.csv,1 1 1 0 1 1 0 1 1 1,8,categoryA,f,,,0,2,2,6,1,12,26,11,,,,,,,,,,,,,,,,,,,f,1,0.17493754200040712,,,,,,,,,,,,,,,,,,,,,,,,,,,,,,,,,,,,999,002,2021_Sep_08_1222,joplin1,2021.2.3,60.01264754519757,
_train_cond.csv,0 0 0 1 0 0 1 0 0 0,2,categoryB,j,,,0,2,2,6,1,13,27,4,,,,,,,,,,,,,,,,,,,j,1,0.43623916700016707,,,,,,,,,,,,,,,,,,,,,,,,,,,,,,,,,,,,999,002,2021_Sep_08_1222,joplin1,2021.2.3,60.01264754519757,
_train_cond.csv,1 1 1 0 0 0 0 1 1 1,6,categoryA,f,,,0,2,2,6,2,0,28,10,,,,,,,,,,,,,,,,,,,f,1,0.23100529200019082,,,,,,,,,,,,,,,,,,,,,,,,,,,,,,,,,,,,999,002,2021_Sep_08_1222,joplin1,2021.2.3,60.01264754519757,
_train_cond.csv,0 0 1 0 1 1 0 1 0 0,4,categoryB,j,,,0,2,2,6,2,1,29,2,,,,,,,,,,,,,,,,,,,j,1,0.38023812500068743,,,,,,,,,,,,,,,,,,,,,,,,,,,,,,,,,,,,999,002,2021_Sep_08_1222,joplin1,2021.2.3,60.01264754519757,
_train_cond.csv,1 0 0 0 0 0 0 0 0 1,2,categoryB,j,,,0,2,2,6,2,2,30,0,,,,,,,,,,,,,,,,,,,f,0,0.4581554579999647,,,,,,,,,,,,,,,,,,,,,,,,,,,,,,,,,,,,999,002,2021_Sep_08_1222,joplin1,2021.2.3,60.01264754519757,
_train_cond.csv,1 1 1 0 1 1 0 1 1 1,8,categoryA,f,,,0,2,2,6,2,3,31,11,,,,,,,,,,,,,,,,,,,j,0,0.5255188329992961,,,,,,,,,,,,,,,,,,,,,,,,,,,,,,,,,,,,999,002,2021_Sep_08_1222,joplin1,2021.2.3,60.01264754519757,
_train_cond.csv,0 0 1 1 1 1 1 1 0 0,6,categoryA,f,,,0,2,2,6,2,4,32,13,,,,,,,,,,,,,,,,,,,f,1,0.4217675830004737,,,,,,,,,,,,,,,,,,,,,,,,,,,,,,,,,,,,999,002,2021_Sep_08_1222,joplin1,2021.2.3,60.01264754519757,
_train_cond.csv,0 1 1 1 1 1 1 1 1 0,8,categoryA,f,,,0,2,2,6,2,5,33,7,,,,,,,,,,,,,,,,,,,j,0,0.21838016599940602,,,,,,,,,,,,,,,,,,,,,,,,,,,,,,,,,,,,999,002,2021_Sep_08_1222,joplin1,2021.2.3,60.01264754519757,
_train_cond.csv,1 1 0 0 0 0 0 0 1 1,4,categoryB,j,,,0,2,2,6,2,6,34,6,,,,,,,,,,,,,,,,,,,f,0,0.27695424999910756,,,,,,,,,,,,,,,,,,,,,,,,,,,,,,,,,,,,999,002,2021_Sep_08_1222,joplin1,2021.2.3,60.01264754519757,
_train_cond.csv,0 0 0 1 0 0 1 0 0 0,2,categoryB,j,,,0,2,2,6,2,7,35,4,,,,,,,,,,,,,,,,,,,j,1,0.5097775840004033,,,,,,,,,,,,,,,,,,,,,,,,,,,,,,,,,,,,999,002,2021_Sep_08_1222,joplin1,2021.2.3,60.01264754519757,
_train_cond.csv,0 0 1 0 0 0 0 1 0 0,2,categoryB,j,,,0,2,2,6,2,8,36,5,,,,,,,,,,,,,,,,,,,f,0,0.6549231660010264,,,,,,,,,,,,,,,,,,,,,,,,,,,,,,,,,,,,999,002,2021_Sep_08_1222,joplin1,2021.2.3,60.01264754519757,
_train_cond.csv,0 0 0 1 1 1 1 0 0 0,4,categoryB,j,,,0,2,2,6,2,9,37,3,,,,,,,,,,,,,,,,,,,j,1,1.2181527499997173,,,,,,,,,,,,,,,,,,,,,,,,,,,,,,,,,,,,999,002,2021_Sep_08_1222,joplin1,2021.2.3,60.01264754519757,
_train_cond.csv,1 0 1 1 1 1 1 1 0 1,8,categoryA,f,,,0,2,2,6,2,10,38,8,,,,,,,,,,,,,,,,,,,j,0,2.2463694580001174,,,,,,,,,,,,,,,,,,,,,,,,,,,,,,,,,,,,999,002,2021_Sep_08_1222,joplin1,2021.2.3,60.01264754519757,
_train_cond.csv,1 1 0 1 0 0 1 0 1 1,6,categoryA,f,,,0,2,2,6,2,11,39,9,,,,,,,,,,,,,,,,,,,j,0,0.81035645799966,,,,,,,,,,,,,,,,,,,,,,,,,,,,,,,,,,,,999,002,2021_Sep_08_1222,joplin1,2021.2.3,60.01264754519757,
_train_cond.csv,0 1 0 0 0 0 0 0 1 0,2,categoryB,j,,,0,2,2,6,2,12,40,1,,,,,,,,,,,,,,,,,,,f,0,0.3755934580003668,,,,,,,,,,,,,,,,,,,,,,,,,,,,,,,,,,,,999,002,2021_Sep_08_1222,joplin1,2021.2.3,60.01264754519757,
_train_cond.csv,1 1 0 1 1 1 1 0 1 1,8,categoryA,f,,,0,2,2,6,2,13,41,12,,,,,,,,,,,,,,,,,,,f,1,0.48538545799965505,,,,,,,,,,,,,,,,,,,,,,,,,,,,,,,,,,,,999,002,2021_Sep_08_1222,joplin1,2021.2.3,60.01264754519757,
_train_cond.csv,,,,,,,0,2,2,6,,,,,,,,,,,,,,,,,,,,,,,,,,space,2.1922648750005465,,,,,,,,,,,,,,,,,,,,,,,,,,,,,,,,,,999,002,2021_Sep_08_1222,joplin1,2021.2.3,60.01264754519757,
_train_cond.csv,1 1 0 1 0 0 1 0 1 1,6,categoryA,f,,,0,3,3,4,0,0,0,9,,,,,,,,,,,,,,,,,,,f,1,0.2043509590002941,,,,,,,,,,,,,,,,,,,,,,,,,,,,,,,,,,,,999,002,2021_Sep_08_1222,joplin1,2021.2.3,60.01264754519757,
_train_cond.csv,0 0 0 1 1 1 1 0 0 0,4,categoryB,j,,,0,3,3,4,0,1,1,3,,,,,,,,,,,,,,,,,,,j,1,0.12922912499925587,,,,,,,,,,,,,,,,,,,,,,,,,,,,,,,,,,,,999,002,2021_Sep_08_1222,joplin1,2021.2.3,60.01264754519757,
_train_cond.csv,0 0 0 1 0 0 1 0 0 0,2,categoryB,j,,,0,3,3,4,0,2,2,4,,,,,,,,,,,,,,,,,,,j,1,0.017628040999625227,,,,,,,,,,,,,,,,,,,,,,,,,,,,,,,,,,,,999,002,2021_Sep_08_1222,joplin1,2021.2.3,60.01264754519757,
_train_cond.csv,1 0 0 0 0 0 0 0 0 1,2,categoryB,j,,,0,3,3,4,0,3,3,0,,,,,,,,,,,,,,,,,,,f,0,0.38231304200053273,,,,,,,,,,,,,,,,,,,,,,,,,,,,,,,,,,,,999,002,2021_Sep_08_1222,joplin1,2021.2.3,60.01264754519757,
_train_cond.csv,1 1 0 0 0 0 0 0 1 1,4,categoryB,j,,,0,3,3,4,0,4,4,6,,,,,,,,,,,,,,,,,,,f,0,0.484720082999047,,,,,,,,,,,,,,,,,,,,,,,,,,,,,,,,,,,,999,002,2021_Sep_08_1222,joplin1,2021.2.3,60.01264754519757,
_train_cond.csv,1 1 1 0 0 0 0 1 1 1,6,categoryA,f,,,0,3,3,4,0,5,5,10,,,,,,,,,,,,,,,,,,,f,1,0.19070758300040325,,,,,,,,,,,,,,,,,,,,,,,,,,,,,,,,,,,,999,002,2021_Sep_08_1222,joplin1,2021.2.3,60.01264754519757,
_train_cond.csv,0 1 1 1 1 1 1 1 1 0,8,categoryA,f,,,0,3,3,4,0,6,6,7,,,,,,,,,,,,,,,,,,,j,0,0.45928037500016217,,,,,,,,,,,,,,,,,,,,,,,,,,,,,,,,,,,,999,002,2021_Sep_08_1222,joplin1,2021.2.3,60.01264754519757,
_train_cond.csv,0 0 1 1 1 1 1 1 0 0,6,categoryA,f,,,0,3,3,4,0,7,7,13,,,,,,,,,,,,,,,,,,,j,0,0.32602775000123074,,,,,,,,,,,,,,,,,,,,,,,,,,,,,,,,,,,,999,002,2021_Sep_08_1222,joplin1,2021.2.3,60.01264754519757,
_train_cond.csv,1 1 0 1 1 1 1 0 1 1,8,categoryA,f,,,0,3,3,4,0,8,8,12,,,,,,,,,,,,,,,,,,,f,1,0.3909347089993389,,,,,,,,,,,,,,,,,,,,,,,,,,,,,,,,,,,,999,002,2021_Sep_08_1222,joplin1,2021.2.3,60.01264754519757,
_train_cond.csv,0 0 1 0 1 1 0 1 0 0,4,categoryB,j,,,0,3,3,4,0,9,9,2,,,,,,,,,,,,,,,,,,,j,1,0.7240035829981935,,,,,,,,,,,,,,,,,,,,,,,,,,,,,,,,,,,,999,002,2021_Sep_08_1222,joplin1,2021.2.3,60.01264754519757,
_train_cond.csv,0 1 0 0 0 0 0 0 1 0,2,categoryB,j,,,0,3,3,4,0,10,10,1,,,,,,,,,,,,,,,,,,,j,1,0.39559587499934423,,,,,,,,,,,,,,,,,,,,,,,,,,,,,,,,,,,,999,002,2021_Sep_08_1222,joplin1,2021.2.3,60.01264754519757,
_train_cond.csv,1 1 1 0 1 1 0 1 1 1,8,categoryA,f,,,0,3,3,4,0,11,11,11,,,,,,,,,,,,,,,,,,,f,1,0.3144219999994675,,,,,,,,,,,,,,,,,,,,,,,,,,,,,,,,,,,,999,002,2021_Sep_08_1222,joplin1,2021.2.3,60.01264754519757,
_train_cond.csv,0 0 1 0 0 0 0 1 0 0,2,categoryB,j,,,0,3,3,4,0,12,12,5,,,,,,,,,,,,,,,,,,,j,1,0.3630076249992271,,,,,,,,,,,,,,,,,,,,,,,,,,,,,,,,,,,,999,002,2021_Sep_08_1222,joplin1,2021.2.3,60.01264754519757,
_train_cond.csv,1 0 1 1 1 1 1 1 0 1,8,categoryA,f,,,0,3,3,4,0,13,13,8,,,,,,,,,,,,,,,,,,,f,1,0.28197150000050897,,,,,,,,,,,,,,,,,,,,,,,,,,,,,,,,,,,,999,002,2021_Sep_08_1222,joplin1,2021.2.3,60.01264754519757,
_train_cond.csv,1 1 0 1 1 1 1 0 1 1,8,categoryA,f,,,0,3,3,4,1,0,14,12,,,,,,,,,,,,,,,,,,,f,1,0.38916729199991096,,,,,,,,,,,,,,,,,,,,,,,,,,,,,,,,,,,,999,002,2021_Sep_08_1222,joplin1,2021.2.3,60.01264754519757,
_train_cond.csv,0 1 0 0 0 0 0 0 1 0,2,categoryB,j,,,0,3,3,4,1,1,15,1,,,,,,,,,,,,,,,,,,,j,1,1.4911011250005686,,,,,,,,,,,,,,,,,,,,,,,,,,,,,,,,,,,,999,002,2021_Sep_08_1222,joplin1,2021.2.3,60.01264754519757,
_train_cond.csv,1 0 0 0 0 0 0 0 0 1,2,categoryB,j,,,0,3,3,4,1,2,16,0,,,,,,,,,,,,,,,,,,,f,0,0.19625283300047158,,,,,,,,,,,,,,,,,,,,,,,,,,,,,,,,,,,,999,002,2021_Sep_08_1222,joplin1,2021.2.3,60.01264754519757,
_train_cond.csv,0 0 1 0 0 0 0 1 0 0,2,categoryB,j,,,0,3,3,4,1,3,17,5,,,,,,,,,,,,,,,,,,,j,1,0.562025667000853,,,,,,,,,,,,,,,,,,,,,,,,,,,,,,,,,,,,999,002,2021_Sep_08_1222,joplin1,2021.2.3,60.01264754519757,
_train_cond.csv,0 0 1 0 1 1 0 1 0 0,4,categoryB,j,,,0,3,3,4,1,4,18,2,,,,,,,,,,,,,,,,,,,j,1,0.0657157500008907,,,,,,,,,,,,,,,,,,,,,,,,,,,,,,,,,,,,999,002,2021_Sep_08_1222,joplin1,2021.2.3,60.01264754519757,
_train_cond.csv,0 0 0 1 1 1 1 0 0 0,4,categoryB,j,,,0,3,3,4,1,5,19,3,,,,,,,,,,,,,,,,,,,j,1,0.47638191700025345,,,,,,,,,,,,,,,,,,,,,,,,,,,,,,,,,,,,999,002,2021_Sep_08_1222,joplin1,2021.2.3,60.01264754519757,
_train_cond.csv,0 0 1 1 1 1 1 1 0 0,6,categoryA,f,,,0,3,3,4,1,6,20,13,,,,,,,,,,,,,,,,,,,j,0,0.41565779200027464,,,,,,,,,,,,,,,,,,,,,,,,,,,,,,,,,,,,999,002,2021_Sep_08_1222,joplin1,2021.2.3,60.01264754519757,
_train_cond.csv,1 1 1 0 0 0 0 1 1 1,6,categoryA,f,,,0,3,3,4,1,7,21,10,,,,,,,,,,,,,,,,,,,f,1,0.18092637500012643,,,,,,,,,,,,,,,,,,,,,,,,,,,,,,,,,,,,999,002,2021_Sep_08_1222,joplin1,2021.2.3,60.01264754519757,
_train_cond.csv,1 1 0 0 0 0 0 0 1 1,4,categoryB,j,,,0,3,3,4,1,8,22,6,,,,,,,,,,,,,,,,,,,j,1,0.9781299589994887,,,,,,,,,,,,,,,,,,,,,,,,,,,,,,,,,,,,999,002,2021_Sep_08_1222,joplin1,2021.2.3,60.01264754519757,
_train_cond.csv,0 1 1 1 1 1 1 1 1 0,8,categoryA,f,,,0,3,3,4,1,9,23,7,,,,,,,,,,,,,,,,,,,j,0,0.8883887920001143,,,,,,,,,,,,,,,,,,,,,,,,,,,,,,,,,,,,999,002,2021_Sep_08_1222,joplin1,2021.2.3,60.01264754519757,
_train_cond.csv,0 0 0 1 0 0 1 0 0 0,2,categoryB,j,,,0,3,3,4,1,10,24,4,,,,,,,,,,,,,,,,,,,j,1,0.3212462499996036,,,,,,,,,,,,,,,,,,,,,,,,,,,,,,,,,,,,999,002,2021_Sep_08_1222,joplin1,2021.2.3,60.01264754519757,
_train_cond.csv,1 1 1 0 1 1 0 1 1 1,8,categoryA,f,,,0,3,3,4,1,11,25,11,,,,,,,,,,,,,,,,,,,f,1,0.3300771659996826,,,,,,,,,,,,,,,,,,,,,,,,,,,,,,,,,,,,999,002,2021_Sep_08_1222,joplin1,2021.2.3,60.01264754519757,
_train_cond.csv,1 1 0 1 0 0 1 0 1 1,6,categoryA,f,,,0,3,3,4,1,12,26,9,,,,,,,,,,,,,,,,,,,f,1,0.34687545800079533,,,,,,,,,,,,,,,,,,,,,,,,,,,,,,,,,,,,999,002,2021_Sep_08_1222,joplin1,2021.2.3,60.01264754519757,
_train_cond.csv,1 0 1 1 1 1 1 1 0 1,8,categoryA,f,,,0,3,3,4,1,13,27,8,,,,,,,,,,,,,,,,,,,f,1,0.23372845800076902,,,,,,,,,,,,,,,,,,,,,,,,,,,,,,,,,,,,999,002,2021_Sep_08_1222,joplin1,2021.2.3,60.01264754519757,
_train_cond.csv,0 0 0 1 0 0 1 0 0 0,2,categoryB,j,,,0,3,3,4,2,0,28,4,,,,,,,,,,,,,,,,,,,f,0,1.0310053749999497,,,,,,,,,,,,,,,,,,,,,,,,,,,,,,,,,,,,999,002,2021_Sep_08_1222,joplin1,2021.2.3,60.01264754519757,
_train_cond.csv,1 1 1 0 1 1 0 1 1 1,8,categoryA,f,,,0,3,3,4,2,1,29,11,,,,,,,,,,,,,,,,,,,f,1,0.19669387499925506,,,,,,,,,,,,,,,,,,,,,,,,,,,,,,,,,,,,999,002,2021_Sep_08_1222,joplin1,2021.2.3,60.01264754519757,
_train_cond.csv,0 0 0 1 1 1 1 0 0 0,4,categoryB,j,,,0,3,3,4,2,2,30,3,,,,,,,,,,,,,,,,,,,j,1,1.1046697499987204,,,,,,,,,,,,,,,,,,,,,,,,,,,,,,,,,,,,999,002,2021_Sep_08_1222,joplin1,2021.2.3,60.01264754519757,
_train_cond.csv,1 0 1 1 1 1 1 1 0 1,8,categoryA,f,,,0,3,3,4,2,3,31,8,,,,,,,,,,,,,,,,,,,f,1,0.5291909589996067,,,,,,,,,,,,,,,,,,,,,,,,,,,,,,,,,,,,999,002,2021_Sep_08_1222,joplin1,2021.2.3,60.01264754519757,
_train_cond.csv,1 1 0 0 0 0 0 0 1 1,4,categoryB,j,,,0,3,3,4,2,4,32,6,,,,,,,,,,,,,,,,,,,f,0,0.5942471250000381,,,,,,,,,,,,,,,,,,,,,,,,,,,,,,,,,,,,999,002,2021_Sep_08_1222,joplin1,2021.2.3,60.01264754519757,
_train_cond.csv,1 0 0 0 0 0 0 0 0 1,2,categoryB,j,,,0,3,3,4,2,5,33,0,,,,,,,,,,,,,,,,,,,f,0,0.43135454100047355,,,,,,,,,,,,,,,,,,,,,,,,,,,,,,,,,,,,999,002,2021_Sep_08_1222,joplin1,2021.2.3,60.01264754519757,
_train_cond.csv,1 1 0 1 0 0 1 0 1 1,6,categoryA,f,,,0,3,3,4,2,6,34,9,,,,,,,,,,,,,,,,,,,f,1,0.6692580830003863,,,,,,,,,,,,,,,,,,,,,,,,,,,,,,,,,,,,999,002,2021_Sep_08_1222,joplin1,2021.2.3,60.01264754519757,
_train_cond.csv,1 1 1 0 0 0 0 1 1 1,6,categoryA,f,,,0,3,3,4,2,7,35,10,,,,,,,,,,,,,,,,,,,f,1,0.30436687499968684,,,,,,,,,,,,,,,,,,,,,,,,,,,,,,,,,,,,999,002,2021_Sep_08_1222,joplin1,2021.2.3,60.01264754519757,
_train_cond.csv,0 1 1 1 1 1 1 1 1 0,8,categoryA,f,,,0,3,3,4,2,8,36,7,,,,,,,,,,,,,,,,,,,j,0,0.49676225000075647,,,,,,,,,,,,,,,,,,,,,,,,,,,,,,,,,,,,999,002,2021_Sep_08_1222,joplin1,2021.2.3,60.01264754519757,
_train_cond.csv,0 0 1 1 1 1 1 1 0 0,6,categoryA,f,,,0,3,3,4,2,9,37,13,,,,,,,,,,,,,,,,,,,j,0,0.3863577499996609,,,,,,,,,,,,,,,,,,,,,,,,,,,,,,,,,,,,999,002,2021_Sep_08_1222,joplin1,2021.2.3,60.01264754519757,
_train_cond.csv,1 1 0 1 1 1 1 0 1 1,8,categoryA,f,,,0,3,3,4,2,10,38,12,,,,,,,,,,,,,,,,,,,f,1,0.25473833400064905,,,,,,,,,,,,,,,,,,,,,,,,,,,,,,,,,,,,999,002,2021_Sep_08_1222,joplin1,2021.2.3,60.01264754519757,
_train_cond.csv,0 0 1 0 0 0 0 1 0 0,2,categoryB,j,,,0,3,3,4,2,11,39,5,,,,,,,,,,,,,,,,,,,j,1,0.2903352499997709,,,,,,,,,,,,,,,,,,,,,,,,,,,,,,,,,,,,999,002,2021_Sep_08_1222,joplin1,2021.2.3,60.01264754519757,
_train_cond.csv,0 0 1 0 1 1 0 1 0 0,4,categoryB,j,,,0,3,3,4,2,12,40,2,,,,,,,,,,,,,,,,,,,j,1,1.0358372499995312,,,,,,,,,,,,,,,,,,,,,,,,,,,,,,,,,,,,999,002,2021_Sep_08_1222,joplin1,2021.2.3,60.01264754519757,
_train_cond.csv,0 1 0 0 0 0 0 0 1 0,2,categoryB,j,,,0,3,3,4,2,13,41,1,,,,,,,,,,,,,,,,,,,f,0,0.448083792000034,,,,,,,,,,,,,,,,,,,,,,,,,,,,,,,,,,,,999,002,2021_Sep_08_1222,joplin1,2021.2.3,60.01264754519757,
_train_cond.csv,,,,,,,0,3,3,4,,,,,,,,,,,,,,,,,,,,,,,,,,space,1.90774195800077,,,,,,,,,,,,,,,,,,,,,,,,,,,,,,,,,,999,002,2021_Sep_08_1222,joplin1,2021.2.3,60.01264754519757,
_train_cond.csv,0 0 1 0 1 1 0 1 0 0,4,categoryB,j,,,0,4,4,0,0,0,0,2,,,,,,,,,,,,,,,,,,,j,1,0.28407562500069616,,,,,,,,,,,,,,,,,,,,,,,,,,,,,,,,,,,,999,002,2021_Sep_08_1222,joplin1,2021.2.3,60.01264754519757,
_train_cond.csv,0 1 0 0 0 0 0 0 1 0,2,categoryB,j,,,0,4,4,0,0,1,1,1,,,,,,,,,,,,,,,,,,,f,0,0.4861617090009531,,,,,,,,,,,,,,,,,,,,,,,,,,,,,,,,,,,,999,002,2021_Sep_08_1222,joplin1,2021.2.3,60.01264754519757,
_train_cond.csv,1 1 1 0 0 0 0 1 1 1,6,categoryA,f,,,0,4,4,0,0,2,2,10,,,,,,,,,,,,,,,,,,,f,1,0.00030820800020592287,,,,,,,,,,,,,,,,,,,,,,,,,,,,,,,,,,,,999,002,2021_Sep_08_1222,joplin1,2021.2.3,60.01264754519757,
_train_cond.csv,1 0 1 1 1 1 1 1 0 1,8,categoryA,f,,,0,4,4,0,0,3,3,8,,,,,,,,,,,,,,,,,,,f,1,0.23731320799925015,,,,,,,,,,,,,,,,,,,,,,,,,,,,,,,,,,,,999,002,2021_Sep_08_1222,joplin1,2021.2.3,60.01264754519757,
_train_cond.csv,0 1 1 1 1 1 1 1 1 0,8,categoryA,f,,,0,4,4,0,0,4,4,7,,,,,,,,,,,,,,,,,,,f,1,0.2338951250003447,,,,,,,,,,,,,,,,,,,,,,,,,,,,,,,,,,,,999,002,2021_Sep_08_1222,joplin1,2021.2.3,60.01264754519757,
_train_cond.csv,0 0 1 0 0 0 0 1 0 0,2,categoryB,j,,,0,4,4,0,0,5,5,5,,,,,,,,,,,,,,,,,,,f,0,0.6546675419995154,,,,,,,,,,,,,,,,,,,,,,,,,,,,,,,,,,,,999,002,2021_Sep_08_1222,joplin1,2021.2.3,60.01264754519757,
_train_cond.csv,1 1 0 1 1 1 1 0 1 1,8,categoryA,f,,,0,4,4,0,0,6,6,12,,,,,,,,,,,,,,,,,,,j,0,0.408565166999324,,,,,,,,,,,,,,,,,,,,,,,,,,,,,,,,,,,,999,002,2021_Sep_08_1222,joplin1,2021.2.3,60.01264754519757,
_train_cond.csv,0 0 1 1 1 1 1 1 0 0,6,categoryA,f,,,0,4,4,0,0,7,7,13,,,,,,,,,,,,,,,,,,,f,1,0.39725083299890684,,,,,,,,,,,,,,,,,,,,,,,,,,,,,,,,,,,,999,002,2021_Sep_08_1222,joplin1,2021.2.3,60.01264754519757,
_train_cond.csv,1 1 0 1 0 0 1 0 1 1,6,categoryA,f,,,0,4,4,0,0,8,8,9,,,,,,,,,,,,,,,,,,,f,1,0.40428091600006155,,,,,,,,,,,,,,,,,,,,,,,,,,,,,,,,,,,,999,002,2021_Sep_08_1222,joplin1,2021.2.3,60.01264754519757,
_train_cond.csv,0 0 0 1 0 0 1 0 0 0,2,categoryB,j,,,0,4,4,0,0,9,9,4,,,,,,,,,,,,,,,,,,,j,1,0.1772769999988668,,,,,,,,,,,,,,,,,,,,,,,,,,,,,,,,,,,,999,002,2021_Sep_08_1222,joplin1,2021.2.3,60.01264754519757,
_train_cond.csv,1 1 1 0 1 1 0 1 1 1,8,categoryA,f,,,0,4,4,0,0,10,10,11,,,,,,,,,,,,,,,,,,,f,1,0.16842020900003263,,,,,,,,,,,,,,,,,,,,,,,,,,,,,,,,,,,,999,002,2021_Sep_08_1222,joplin1,2021.2.3,60.01264754519757,
_train_cond.csv,1 1 0 0 0 0 0 0 1 1,4,categoryB,j,,,0,4,4,0,0,11,11,6,,,,,,,,,,,,,,,,,,,f,0,0.3499491250004212,,,,,,,,,,,,,,,,,,,,,,,,,,,,,,,,,,,,999,002,2021_Sep_08_1222,joplin1,2021.2.3,60.01264754519757,
_train_cond.csv,1 0 0 0 0 0 0 0 0 1,2,categoryB,j,,,0,4,4,0,0,12,12,0,,,,,,,,,,,,,,,,,,,f,0,0.4445395410002675,,,,,,,,,,,,,,,,,,,,,,,,,,,,,,,,,,,,999,002,2021_Sep_08_1222,joplin1,2021.2.3,60.01264754519757,
_train_cond.csv,0 0 0 1 1 1 1 0 0 0,4,categoryB,j,,,0,4,4,0,0,13,13,3,,,,,,,,,,,,,,,,,,,j,1,0.4413062500007072,,,,,,,,,,,,,,,,,,,,,,,,,,,,,,,,,,,,999,002,2021_Sep_08_1222,joplin1,2021.2.3,60.01264754519757,
_train_cond.csv,0 0 1 0 0 0 0 1 0 0,2,categoryB,j,,,0,4,4,0,1,0,14,5,,,,,,,,,,,,,,,,,,,f,0,0.3797301249996963,,,,,,,,,,,,,,,,,,,,,,,,,,,,,,,,,,,,999,002,2021_Sep_08_1222,joplin1,2021.2.3,60.01264754519757,
_train_cond.csv,0 0 0 1 0 0 1 0 0 0,2,categoryB,j,,,0,4,4,0,1,1,15,4,,,,,,,,,,,,,,,,,,,j,1,0.37111333399843716,,,,,,,,,,,,,,,,,,,,,,,,,,,,,,,,,,,,999,002,2021_Sep_08_1222,joplin1,2021.2.3,60.01264754519757,
_train_cond.csv,1 1 0 1 1 1 1 0 1 1,8,categoryA,f,,,0,4,4,0,1,2,16,12,,,,,,,,,,,,,,,,,,,f,1,0.46449337499871035,,,,,,,,,,,,,,,,,,,,,,,,,,,,,,,,,,,,999,002,2021_Sep_08_1222,joplin1,2021.2.3,60.01264754519757,
_train_cond.csv,0 1 1 1 1 1 1 1 1 0,8,categoryA,f,,,0,4,4,0,1,3,17,7,,,,,,,,,,,,,,,,,,,j,0,0.5476298749999842,,,,,,,,,,,,,,,,,,,,,,,,,,,,,,,,,,,,999,002,2021_Sep_08_1222,joplin1,2021.2.3,60.01264754519757,
_train_cond.csv,1 1 0 1 0 0 1 0 1 1,6,categoryA,f,,,0,4,4,0,1,4,18,9,,,,,,,,,,,,,,,,,,,f,1,0.6581017909993534,,,,,,,,,,,,,,,,,,,,,,,,,,,,,,,,,,,,999,002,2021_Sep_08_1222,joplin1,2021.2.3,60.01264754519757,
_train_cond.csv,1 1 1 0 0 0 0 1 1 1,6,categoryA,f,,,0,4,4,0,1,5,19,10,,,,,,,,,,,,,,,,,,,j,0,1.1255727910011046,,,,,,,,,,,,,,,,,,,,,,,,,,,,,,,,,,,,999,002,2021_Sep_08_1222,joplin1,2021.2.3,60.01264754519757,
_train_cond.csv,0 1 0 0 0 0 0 0 1 0,2,categoryB,j,,,0,4,4,0,1,6,20,1,,,,,,,,,,,,,,,,,,,f,0,0.09288420799930464,,,,,,,,,,,,,,,,,,,,,,,,,,,,,,,,,,,,999,002,2021_Sep_08_1222,joplin1,2021.2.3,60.01264754519757,
_train_cond.csv,0 0 0 1 1 1 1 0 0 0,4,categoryB,j,,,0,4,4,0,1,7,21,3,,,,,,,,,,,,,,,,,,,j,1,0.22974649999923713,,,,,,,,,,,,,,,,,,,,,,,,,,,,,,,,,,,,999,002,2021_Sep_08_1222,joplin1,2021.2.3,60.01264754519757,
_train_cond.csv,1 1 1 0 1 1 0 1 1 1,8,categoryA,f,,,0,4,4,0,1,8,22,11,,,,,,,,,,,,,,,,,,,f,1,0.01099745899955451,,,,,,,,,,,,,,,,,,,,,,,,,,,,,,,,,,,,999,002,2021_Sep_08_1222,joplin1,2021.2.3,60.01264754519757,
_train_cond.csv,1 0 0 0 0 0 0 0 0 1,2,categoryB,j,,,0,4,4,0,1,9,23,0,,,,,,,,,,,,,,,,,,,f,0,0.6226355420003529,,,,,,,,,,,,,,,,,,,,,,,,,,,,,,,,,,,,999,002,2021_Sep_08_1222,joplin1,2021.2.3,60.01264754519757,
_train_cond.csv,1 0 1 1 1 1 1 1 0 1,8,categoryA,f,,,0,4,4,0,1,10,24,8,,,,,,,,,,,,,,,,,,,f,1,0.42564195900013146,,,,,,,,,,,,,,,,,,,,,,,,,,,,,,,,,,,,999,002,2021_Sep_08_1222,joplin1,2021.2.3,60.01264754519757,
_train_cond.csv,0 0 1 1 1 1 1 1 0 0,6,categoryA,f,,,0,4,4,0,1,11,25,13,,,,,,,,,,,,,,,,,,,j,0,0.36470337500031746,,,,,,,,,,,,,,,,,,,,,,,,,,,,,,,,,,,,999,002,2021_Sep_08_1222,joplin1,2021.2.3,60.01264754519757,
_train_cond.csv,0 0 1 0 1 1 0 1 0 0,4,categoryB,j,,,0,4,4,0,1,12,26,2,,,,,,,,,,,,,,,,,,,f,0,0.6195840839991433,,,,,,,,,,,,,,,,,,,,,,,,,,,,,,,,,,,,999,002,2021_Sep_08_1222,joplin1,2021.2.3,60.01264754519757,
_train_cond.csv,1 1 0 0 0 0 0 0 1 1,4,categoryB,j,,,0,4,4,0,1,13,27,6,,,,,,,,,,,,,,,,,,,f,0,0.30428658399978303,,,,,,,,,,,,,,,,,,,,,,,,,,,,,,,,,,,,999,002,2021_Sep_08_1222,joplin1,2021.2.3,60.01264754519757,
_train_cond.csv,1 1 1 0 1 1 0 1 1 1,8,categoryA,f,,,0,4,4,0,2,0,28,11,,,,,,,,,,,,,,,,,,,f,1,0.39396366700020735,,,,,,,,,,,,,,,,,,,,,,,,,,,,,,,,,,,,999,002,2021_Sep_08_1222,joplin1,2021.2.3,60.01264754519757,
_train_cond.csv,0 0 1 0 1 1 0 1 0 0,4,categoryB,j,,,0,4,4,0,2,1,29,2,,,,,,,,,,,,,,,,,,,j,1,0.6314743329985504,,,,,,,,,,,,,,,,,,,,,,,,,,,,,,,,,,,,999,002,2021_Sep_08_1222,joplin1,2021.2.3,60.01264754519757,
_train_cond.csv,0 0 1 0 0 0 0 1 0 0,2,categoryB,j,,,0,4,4,0,2,2,30,5,,,,,,,,,,,,,,,,,,,f,0,0.34714495899970643,,,,,,,,,,,,,,,,,,,,,,,,,,,,,,,,,,,,999,002,2021_Sep_08_1222,joplin1,2021.2.3,60.01264754519757,
_train_cond.csv,1 1 0 0 0 0 0 0 1 1,4,categoryB,j,,,0,4,4,0,2,3,31,6,,,,,,,,,,,,,,,,,,,f,0,0.35554645899901516,,,,,,,,,,,,,,,,,,,,,,,,,,,,,,,,,,,,999,002,2021_Sep_08_1222,joplin1,2021.2.3,60.01264754519757,
_train_cond.csv,1 1 0 1 0 0 1 0 1 1,6,categoryA,f,,,0,4,4,0,2,4,32,9,,,,,,,,,,,,,,,,,,,f,1,1.1859583749992453,,,,,,,,,,,,,,,,,,,,,,,,,,,,,,,,,,,,999,002,2021_Sep_08_1222,joplin1,2021.2.3,60.01264754519757,
_train_cond.csv,1 0 0 0 0 0 0 0 0 1,2,categoryB,j,,,0,4,4,0,2,5,33,0,,,,,,,,,,,,,,,,,,,f,0,0.3209921249999752,,,,,,,,,,,,,,,,,,,,,,,,,,,,,,,,,,,,999,002,2021_Sep_08_1222,joplin1,2021.2.3,60.01264754519757,
_train_cond.csv,0 1 0 0 0 0 0 0 1 0,2,categoryB,j,,,0,4,4,0,2,6,34,1,,,,,,,,,,,,,,,,,,,j,1,0.38509037499898113,,,,,,,,,,,,,,,,,,,,,,,,,,,,,,,,,,,,999,002,2021_Sep_08_1222,joplin1,2021.2.3,60.01264754519757,
_train_cond.csv,0 0 0 1 0 0 1 0 0 0,2,categoryB,j,,,0,4,4,0,2,7,35,4,,,,,,,,,,,,,,,,,,,j,1,0.4796485839997331,,,,,,,,,,,,,,,,,,,,,,,,,,,,,,,,,,,,999,002,2021_Sep_08_1222,joplin1,2021.2.3,60.01264754519757,
_train_cond.csv,1 1 1 0 0 0 0 1 1 1,6,categoryA,f,,,0,4,4,0,2,8,36,10,,,,,,,,,,,,,,,,,,,f,1,0.0024222920001193415,,,,,,,,,,,,,,,,,,,,,,,,,,,,,,,,,,,,999,002,2021_Sep_08_1222,joplin1,2021.2.3,60.01264754519757,
_train_cond.csv,0 0 0 1 1 1 1 0 0 0,4,categoryB,j,,,0,4,4,0,2,9,37,3,,,,,,,,,,,,,,,,,,,j,1,0.8712500000001455,,,,,,,,,,,,,,,,,,,,,,,,,,,,,,,,,,,,999,002,2021_Sep_08_1222,joplin1,2021.2.3,60.01264754519757,
_train_cond.csv,0 1 1 1 1 1 1 1 1 0,8,categoryA,f,,,0,4,4,0,2,10,38,7,,,,,,,,,,,,,,,,,,,f,1,0.30521774999942863,,,,,,,,,,,,,,,,,,,,,,,,,,,,,,,,,,,,999,002,2021_Sep_08_1222,joplin1,2021.2.3,60.01264754519757,
_train_cond.csv,0 0 1 1 1 1 1 1 0 0,6,categoryA,f,,,0,4,4,0,2,11,39,13,,,,,,,,,,,,,,,,,,,j,0,0.17889070799901674,,,,,,,,,,,,,,,,,,,,,,,,,,,,,,,,,,,,999,002,2021_Sep_08_1222,joplin1,2021.2.3,60.01264754519757,
_train_cond.csv,1 0 1 1 1 1 1 1 0 1,8,categoryA,f,,,0,4,4,0,2,12,40,8,,,,,,,,,,,,,,,,,,,f,1,0.12090645899843366,,,,,,,,,,,,,,,,,,,,,,,,,,,,,,,,,,,,999,002,2021_Sep_08_1222,joplin1,2021.2.3,60.01264754519757,
_train_cond.csv,1 1 0 1 1 1 1 0 1 1,8,categoryA,f,,,0,4,4,0,2,13,41,12,,,,,,,,,,,,,,,,,,,f,1,0.5528501250009867,,,,,,,,,,,,,,,,,,,,,,,,,,,,,,,,,,,,999,002,2021_Sep_08_1222,joplin1,2021.2.3,60.01264754519757,
_train_cond.csv,,,,,,,0,4,4,0,,,,,,,,,,,,,,,,,,,,,,,,,,space,2.1208825419998902,,,,,,,,,,,,,,,,,,,,,,,,,,,,,,,,,,999,002,2021_Sep_08_1222,joplin1,2021.2.3,60.01264754519757,
_train_cond.csv,1 1 1 0 0 0 0 1 1 1,6,categoryA,f,,,0,5,5,2,0,0,0,10,,,,,,,,,,,,,,,,,,,f,1,0.5511012079987267,,,,,,,,,,,,,,,,,,,,,,,,,,,,,,,,,,,,999,002,2021_Sep_08_1222,joplin1,2021.2.3,60.01264754519757,
_train_cond.csv,1 1 0 1 1 1 1 0 1 1,8,categoryA,f,,,0,5,5,2,0,1,1,12,,,,,,,,,,,,,,,,,,,f,1,0.47885854199921596,,,,,,,,,,,,,,,,,,,,,,,,,,,,,,,,,,,,999,002,2021_Sep_08_1222,joplin1,2021.2.3,60.01264754519757,
_train_cond.csv,1 1 0 1 0 0 1 0 1 1,6,categoryA,f,,,0,5,5,2,0,2,2,9,,,,,,,,,,,,,,,,,,,f,1,0.38391670899909514,,,,,,,,,,,,,,,,,,,,,,,,,,,,,,,,,,,,999,002,2021_Sep_08_1222,joplin1,2021.2.3,60.01264754519757,
_train_cond.csv,0 1 0 0 0 0 0 0 1 0,2,categoryB,j,,,0,5,5,2,0,3,3,1,,,,,,,,,,,,,,,,,,,j,1,0.31898029200056044,,,,,,,,,,,,,,,,,,,,,,,,,,,,,,,,,,,,999,002,2021_Sep_08_1222,joplin1,2021.2.3,60.01264754519757,
_train_cond.csv,0 0 1 1 1 1 1 1 0 0,6,categoryA,f,,,0,5,5,2,0,4,4,13,,,,,,,,,,,,,,,,,,,j,0,0.3030041670008359,,,,,,,,,,,,,,,,,,,,,,,,,,,,,,,,,,,,999,002,2021_Sep_08_1222,joplin1,2021.2.3,60.01264754519757,
_train_cond.csv,1 1 1 0 1 1 0 1 1 1,8,categoryA,f,,,0,5,5,2,0,5,5,11,,,,,,,,,,,,,,,,,,,f,1,0.2719674580002902,,,,,,,,,,,,,,,,,,,,,,,,,,,,,,,,,,,,999,002,2021_Sep_08_1222,joplin1,2021.2.3,60.01264754519757,
_train_cond.csv,0 0 1 0 1 1 0 1 0 0,4,categoryB,j,,,0,5,5,2,0,6,6,2,,,,,,,,,,,,,,,,,,,j,1,0.3626433330009604,,,,,,,,,,,,,,,,,,,,,,,,,,,,,,,,,,,,999,002,2021_Sep_08_1222,joplin1,2021.2.3,60.01264754519757,
_train_cond.csv,0 0 0 1 0 0 1 0 0 0,2,categoryB,j,,,0,5,5,2,0,7,7,4,,,,,,,,,,,,,,,,,,,f,0,0.6102572090003378,,,,,,,,,,,,,,,,,,,,,,,,,,,,,,,,,,,,999,002,2021_Sep_08_1222,joplin1,2021.2.3,60.01264754519757,
_train_cond.csv,1 1 0 0 0 0 0 0 1 1,4,categoryB,j,,,0,5,5,2,0,8,8,6,,,,,,,,,,,,,,,,,,,j,1,0.6157940000011877,,,,,,,,,,,,,,,,,,,,,,,,,,,,,,,,,,,,999,002,2021_Sep_08_1222,joplin1,2021.2.3,60.01264754519757,
_train_cond.csv,0 0 1 0 0 0 0 1 0 0,2,categoryB,j,,,0,5,5,2,0,9,9,5,,,,,,,,,,,,,,,,,,,j,1,1.0199732080000103,,,,,,,,,,,,,,,,,,,,,,,,,,,,,,,,,,,,999,002,2021_Sep_08_1222,joplin1,2021.2.3,60.01264754519757,
_train_cond.csv,1 0 1 1 1 1 1 1 0 1,8,categoryA,f,,,0,5,5,2,0,10,10,8,,,,,,,,,,,,,,,,,,,f,1,0.48877224999887403,,,,,,,,,,,,,,,,,,,,,,,,,,,,,,,,,,,,999,002,2021_Sep_08_1222,joplin1,2021.2.3,60.01264754519757,
_train_cond.csv,0 0 0 1 1 1 1 0 0 0,4,categoryB,j,,,0,5,5,2,0,11,11,3,,,,,,,,,,,,,,,,,,,j,1,0.041778000000704196,,,,,,,,,,,,,,,,,,,,,,,,,,,,,,,,,,,,999,002,2021_Sep_08_1222,joplin1,2021.2.3,60.01264754519757,
_train_cond.csv,1 0 0 0 0 0 0 0 0 1,2,categoryB,j,,,0,5,5,2,0,12,12,0,,,,,,,,,,,,,,,,,,,f,0,0.8194583340009558,,,,,,,,,,,,,,,,,,,,,,,,,,,,,,,,,,,,999,002,2021_Sep_08_1222,joplin1,2021.2.3,60.01264754519757,
_train_cond.csv,0 1 1 1 1 1 1 1 1 0,8,categoryA,f,,,0,5,5,2,0,13,13,7,,,,,,,,,,,,,,,,,,,j,0,0.9127680000001419,,,,,,,,,,,,,,,,,,,,,,,,,,,,,,,,,,,,999,002,2021_Sep_08_1222,joplin1,2021.2.3,60.01264754519757,
_train_cond.csv,1 1 0 1 1 1 1 0 1 1,8,categoryA,f,,,0,5,5,2,1,0,14,12,,,,,,,,,,,,,,,,,,,f,1,0.5675438750004105,,,,,,,,,,,,,,,,,,,,,,,,,,,,,,,,,,,,999,002,2021_Sep_08_1222,joplin1,2021.2.3,60.01264754519757,
_train_cond.csv,1 1 0 0 0 0 0 0 1 1,4,categoryB,j,,,0,5,5,2,1,1,15,6,,,,,,,,,,,,,,,,,,,j,1,0.4066651670000283,,,,,,,,,,,,,,,,,,,,,,,,,,,,,,,,,,,,999,002,2021_Sep_08_1222,joplin1,2021.2.3,60.01264754519757,
_train_cond.csv,0 0 1 0 1 1 0 1 0 0,4,categoryB,j,,,0,5,5,2,1,2,16,2,,,,,,,,,,,,,,,,,,,f,0,0.27387370799988275,,,,,,,,,,,,,,,,,,,,,,,,,,,,,,,,,,,,999,002,2021_Sep_08_1222,joplin1,2021.2.3,60.01264754519757,
_train_cond.csv,1 1 1 0 1 1 0 1 1 1,8,categoryA,f,,,0,5,5,2,1,3,17,11,,,,,,,,,,,,,,,,,,,j,0,0.6603237500003161,,,,,,,,,,,,,,,,,,,,,,,,,,,,,,,,,,,,999,002,2021_Sep_08_1222,joplin1,2021.2.3,60.01264754519757,
_train_cond.csv,0 0 0 1 1 1 1 0 0 0,4,categoryB,j,,,0,5,5,2,1,4,18,3,,,,,,,,,,,,,,,,,,,j,1,0.3508392919993639,,,,,,,,,,,,,,,,,,,,,,,,,,,,,,,,,,,,999,002,2021_Sep_08_1222,joplin1,2021.2.3,60.01264754519757,
_train_cond.csv,0 0 0 1 0 0 1 0 0 0,2,categoryB,j,,,0,5,5,2,1,5,19,4,,,,,,,,,,,,,,,,,,,j,1,0.4227985830002581,,,,,,,,,,,,,,,,,,,,,,,,,,,,,,,,,,,,999,002,2021_Sep_08_1222,joplin1,2021.2.3,60.01264754519757,
_train_cond.csv,1 1 1 0 0 0 0 1 1 1,6,categoryA,f,,,0,5,5,2,1,6,20,10,,,,,,,,,,,,,,,,,,,f,1,0.24412933299936412,,,,,,,,,,,,,,,,,,,,,,,,,,,,,,,,,,,,999,002,2021_Sep_08_1222,joplin1,2021.2.3,60.01264754519757,
_train_cond.csv,0 0 1 0 0 0 0 1 0 0,2,categoryB,j,,,0,5,5,2,1,7,21,5,,,,,,,,,,,,,,,,,,,j,1,0.20839083300052152,,,,,,,,,,,,,,,,,,,,,,,,,,,,,,,,,,,,999,002,2021_Sep_08_1222,joplin1,2021.2.3,60.01264754519757,
_train_cond.csv,1 1 0 1 0 0 1 0 1 1,6,categoryA,f,,,0,5,5,2,1,8,22,9,,,,,,,,,,,,,,,,,,,f,1,0.5156344169990916,,,,,,,,,,,,,,,,,,,,,,,,,,,,,,,,,,,,999,002,2021_Sep_08_1222,joplin1,2021.2.3,60.01264754519757,
_train_cond.csv,0 1 0 0 0 0 0 0 1 0,2,categoryB,j,,,0,5,5,2,1,9,23,1,,,,,,,,,,,,,,,,,,,j,1,0.8611051670013694,,,,,,,,,,,,,,,,,,,,,,,,,,,,,,,,,,,,999,002,2021_Sep_08_1222,joplin1,2021.2.3,60.01264754519757,
_train_cond.csv,0 0 1 1 1 1 1 1 0 0,6,categoryA,f,,,0,5,5,2,1,10,24,13,,,,,,,,,,,,,,,,,,,j,0,0.2633400830000028,,,,,,,,,,,,,,,,,,,,,,,,,,,,,,,,,,,,999,002,2021_Sep_08_1222,joplin1,2021.2.3,60.01264754519757,
_train_cond.csv,1 0 1 1 1 1 1 1 0 1,8,categoryA,f,,,0,5,5,2,1,11,25,8,,,,,,,,,,,,,,,,,,,j,0,0.49987537499873724,,,,,,,,,,,,,,,,,,,,,,,,,,,,,,,,,,,,999,002,2021_Sep_08_1222,joplin1,2021.2.3,60.01264754519757,
_train_cond.csv,1 0 0 0 0 0 0 0 0 1,2,categoryB,j,,,0,5,5,2,1,12,26,0,,,,,,,,,,,,,,,,,,,j,1,0.2372029999987717,,,,,,,,,,,,,,,,,,,,,,,,,,,,,,,,,,,,999,002,2021_Sep_08_1222,joplin1,2021.2.3,60.01264754519757,
_train_cond.csv,0 1 1 1 1 1 1 1 1 0,8,categoryA,f,,,0,5,5,2,1,13,27,7,,,,,,,,,,,,,,,,,,,f,1,0.4073232499995356,,,,,,,,,,,,,,,,,,,,,,,,,,,,,,,,,,,,999,002,2021_Sep_08_1222,joplin1,2021.2.3,60.01264754519757,
_train_cond.csv,0 1 1 1 1 1 1 1 1 0,8,categoryA,f,,,0,5,5,2,2,0,28,7,,,,,,,,,,,,,,,,,,,f,1,0.2774042089986324,,,,,,,,,,,,,,,,,,,,,,,,,,,,,,,,,,,,999,002,2021_Sep_08_1222,joplin1,2021.2.3,60.01264754519757,
_train_cond.csv,0 0 1 0 1 1 0 1 0 0,4,categoryB,j,,,0,5,5,2,2,1,29,2,,,,,,,,,,,,,,,,,,,j,1,0.1197430419997545,,,,,,,,,,,,,,,,,,,,,,,,,,,,,,,,,,,,999,002,2021_Sep_08_1222,joplin1,2021.2.3,60.01264754519757,
_train_cond.csv,1 1 1 0 0 0 0 1 1 1,6,categoryA,f,,,0,5,5,2,2,2,30,10,,,,,,,,,,,,,,,,,,,f,1,0.41561725000065053,,,,,,,,,,,,,,,,,,,,,,,,,,,,,,,,,,,,999,002,2021_Sep_08_1222,joplin1,2021.2.3,60.01264754519757,
_train_cond.csv,0 0 1 0 0 0 0 1 0 0,2,categoryB,j,,,0,5,5,2,2,3,31,5,,,,,,,,,,,,,,,,,,,j,1,0.8276394589993288,,,,,,,,,,,,,,,,,,,,,,,,,,,,,,,,,,,,999,002,2021_Sep_08_1222,joplin1,2021.2.3,60.01264754519757,
_train_cond.csv,0 1 0 0 0 0 0 0 1 0,2,categoryB,j,,,0,5,5,2,2,4,32,1,,,,,,,,,,,,,,,,,,,j,1,0.6243782920009835,,,,,,,,,,,,,,,,,,,,,,,,,,,,,,,,,,,,999,002,2021_Sep_08_1222,joplin1,2021.2.3,60.01264754519757,
_train_cond.csv,1 1 0 1 1 1 1 0 1 1,8,categoryA,f,,,0,5,5,2,2,5,33,12,,,,,,,,,,,,,,,,,,,f,1,0.3002581670007203,,,,,,,,,,,,,,,,,,,,,,,,,,,,,,,,,,,,999,002,2021_Sep_08_1222,joplin1,2021.2.3,60.01264754519757,
_train_cond.csv,1 1 1 0 1 1 0 1 1 1,8,categoryA,f,,,0,5,5,2,2,6,34,11,,,,,,,,,,,,,,,,,,,f,1,0.301668083999175,,,,,,,,,,,,,,,,,,,,,,,,,,,,,,,,,,,,999,002,2021_Sep_08_1222,joplin1,2021.2.3,60.01264754519757,
_train_cond.csv,1 1 0 0 0 0 0 0 1 1,4,categoryB,j,,,0,5,5,2,2,7,35,6,,,,,,,,,,,,,,,,,,,j,1,0.8787215410011413,,,,,,,,,,,,,,,,,,,,,,,,,,,,,,,,,,,,999,002,2021_Sep_08_1222,joplin1,2021.2.3,60.01264754519757,
_train_cond.csv,0 0 0 1 0 0 1 0 0 0,2,categoryB,j,,,0,5,5,2,2,8,36,4,,,,,,,,,,,,,,,,,,,j,1,0.5533996670001216,,,,,,,,,,,,,,,,,,,,,,,,,,,,,,,,,,,,999,002,2021_Sep_08_1222,joplin1,2021.2.3,60.01264754519757,
_train_cond.csv,1 0 0 0 0 0 0 0 0 1,2,categoryB,j,,,0,5,5,2,2,9,37,0,,,,,,,,,,,,,,,,,,,f,0,0.09629787499943632,,,,,,,,,,,,,,,,,,,,,,,,,,,,,,,,,,,,999,002,2021_Sep_08_1222,joplin1,2021.2.3,60.01264754519757,
_train_cond.csv,1 0 1 1 1 1 1 1 0 1,8,categoryA,f,,,0,5,5,2,2,10,38,8,,,,,,,,,,,,,,,,,,,f,1,0.3218452500004787,,,,,,,,,,,,,,,,,,,,,,,,,,,,,,,,,,,,999,002,2021_Sep_08_1222,joplin1,2021.2.3,60.01264754519757,
_train_cond.csv,1 1 0 1 0 0 1 0 1 1,6,categoryA,f,,,0,5,5,2,2,11,39,9,,,,,,,,,,,,,,,,,,,j,0,0.7222245410011965,,,,,,,,,,,,,,,,,,,,,,,,,,,,,,,,,,,,999,002,2021_Sep_08_1222,joplin1,2021.2.3,60.01264754519757,
_train_cond.csv,0 0 1 1 1 1 1 1 0 0,6,categoryA,f,,,0,5,5,2,2,12,40,13,,,,,,,,,,,,,,,,,,,f,1,0.37126195800010464,,,,,,,,,,,,,,,,,,,,,,,,,,,,,,,,,,,,999,002,2021_Sep_08_1222,joplin1,2021.2.3,60.01264754519757,
_train_cond.csv,0 0 0 1 1 1 1 0 0 0,4,categoryB,j,,,0,5,5,2,2,13,41,3,,,,,,,,,,,,,,,,,,,j,1,0.4731313339998451,,,,,,,,,,,,,,,,,,,,,,,,,,,,,,,,,,,,999,002,2021_Sep_08_1222,joplin1,2021.2.3,60.01264754519757,
_train_cond.csv,,,,,,,0,5,5,2,,,,,,,,,,,,,,,,,,,,,,,,,,space,3.5718455000005633,,,,,,,,,,,,,,,,,,,,,,,,,,,,,,,,,,999,002,2021_Sep_08_1222,joplin1,2021.2.3,60.01264754519757,
_train_cond.csv,1 1 0 0 0 0 0 0 1 1,4,categoryB,j,,,0,6,6,3,0,0,0,6,,,,,,,,,,,,,,,,,,,f,0,1.063121332999799,,,,,,,,,,,,,,,,,,,,,,,,,,,,,,,,,,,,999,002,2021_Sep_08_1222,joplin1,2021.2.3,60.01264754519757,
_train_cond.csv,1 1 1 0 0 0 0 1 1 1,6,categoryA,f,,,0,6,6,3,0,1,1,10,,,,,,,,,,,,,,,,,,,j,0,0.04959933300051489,,,,,,,,,,,,,,,,,,,,,,,,,,,,,,,,,,,,999,002,2021_Sep_08_1222,joplin1,2021.2.3,60.01264754519757,
_train_cond.csv,1 1 1 0 1 1 0 1 1 1,8,categoryA,f,,,0,6,6,3,0,2,2,11,,,,,,,,,,,,,,,,,,,f,1,0.46798554199995124,,,,,,,,,,,,,,,,,,,,,,,,,,,,,,,,,,,,999,002,2021_Sep_08_1222,joplin1,2021.2.3,60.01264754519757,
_train_cond.csv,0 0 0 1 0 0 1 0 0 0,2,categoryB,j,,,0,6,6,3,0,3,3,4,,,,,,,,,,,,,,,,,,,j,1,0.039700167000773945,,,,,,,,,,,,,,,,,,,,,,,,,,,,,,,,,,,,999,002,2021_Sep_08_1222,joplin1,2021.2.3,60.01264754519757,
_train_cond.csv,1 1 0 1 1 1 1 0 1 1,8,categoryA,f,,,0,6,6,3,0,4,4,12,,,,,,,,,,,,,,,,,,,f,1,0.9715639999994892,,,,,,,,,,,,,,,,,,,,,,,,,,,,,,,,,,,,999,002,2021_Sep_08_1222,joplin1,2021.2.3,60.01264754519757,
_train_cond.csv,1 0 0 0 0 0 0 0 0 1,2,categoryB,j,,,0,6,6,3,0,5,5,0,,,,,,,,,,,,,,,,,,,j,1,0.36132862500016927,,,,,,,,,,,,,,,,,,,,,,,,,,,,,,,,,,,,999,002,2021_Sep_08_1222,joplin1,2021.2.3,60.01264754519757,
_train_cond.csv,0 0 1 0 1 1 0 1 0 0,4,categoryB,j,,,0,6,6,3,0,6,6,2,,,,,,,,,,,,,,,,,,,j,1,0.1849565420016006,,,,,,,,,,,,,,,,,,,,,,,,,,,,,,,,,,,,999,002,2021_Sep_08_1222,joplin1,2021.2.3,60.01264754519757,
_train_cond.csv,1 1 0 1 0 0 1 0 1 1,6,categoryA,f,,,0,6,6,3,0,7,7,9,,,,,,,,,,,,,,,,,,,f,1,0.5263359999989916,,,,,,,,,,,,,,,,,,,,,,,,,,,,,,,,,,,,999,002,2021_Sep_08_1222,joplin1,2021.2.3,60.01264754519757,
_train_cond.csv,0 0 1 0 0 0 0 1 0 0,2,categoryB,j,,,0,6,6,3,0,8,8,5,,,,,,,,,,,,,,,,,,,j,1,0.39792854199913563,,,,,,,,,,,,,,,,,,,,,,,,,,,,,,,,,,,,999,002,2021_Sep_08_1222,joplin1,2021.2.3,60.01264754519757,
_train_cond.csv,0 0 1 1 1 1 1 1 0 0,6,categoryA,f,,,0,6,6,3,0,9,9,13,,,,,,,,,,,,,,,,,,,f,1,0.426167916999475,,,,,,,,,,,,,,,,,,,,,,,,,,,,,,,,,,,,999,002,2021_Sep_08_1222,joplin1,2021.2.3,60.01264754519757,
_train_cond.csv,1 0 1 1 1 1 1 1 0 1,8,categoryA,f,,,0,6,6,3,0,10,10,8,,,,,,,,,,,,,,,,,,,j,0,1.231315375000122,,,,,,,,,,,,,,,,,,,,,,,,,,,,,,,,,,,,999,002,2021_Sep_08_1222,joplin1,2021.2.3,60.01264754519757,
_train_cond.csv,0 1 1 1 1 1 1 1 1 0,8,categoryA,f,,,0,6,6,3,0,11,11,7,,,,,,,,,,,,,,,,,,,f,1,0.5076354169996193,,,,,,,,,,,,,,,,,,,,,,,,,,,,,,,,,,,,999,002,2021_Sep_08_1222,joplin1,2021.2.3,60.01264754519757,
_train_cond.csv,0 1 0 0 0 0 0 0 1 0,2,categoryB,j,,,0,6,6,3,0,12,12,1,,,,,,,,,,,,,,,,,,,j,1,0.5330471249999391,,,,,,,,,,,,,,,,,,,,,,,,,,,,,,,,,,,,999,002,2021_Sep_08_1222,joplin1,2021.2.3,60.01264754519757,
_train_cond.csv,0 0 0 1 1 1 1 0 0 0,4,categoryB,j,,,0,6,6,3,0,13,13,3,,,,,,,,,,,,,,,,,,,f,0,0.2844576250008686,,,,,,,,,,,,,,,,,,,,,,,,,,,,,,,,,,,,999,002,2021_Sep_08_1222,joplin1,2021.2.3,60.01264754519757,
_train_cond.csv,1 1 0 0 0 0 0 0 1 1,4,categoryB,j,,,0,6,6,3,1,0,14,6,,,,,,,,,,,,,,,,,,,f,0,0.3430449999996199,,,,,,,,,,,,,,,,,,,,,,,,,,,,,,,,,,,,999,002,2021_Sep_08_1222,joplin1,2021.2.3,60.01264754519757,
_train_cond.csv,0 0 0 1 0 0 1 0 0 0,2,categoryB,j,,,0,6,6,3,1,1,15,4,,,,,,,,,,,,,,,,,,,j,1,0.3751167089994851,,,,,,,,,,,,,,,,,,,,,,,,,,,,,,,,,,,,999,002,2021_Sep_08_1222,joplin1,2021.2.3,60.01264754519757,
_train_cond.csv,1 1 0 1 1 1 1 0 1 1,8,categoryA,f,,,0,6,6,3,1,2,16,12,,,,,,,,,,,,,,,,,,,f,1,0.8129237909997755,,,,,,,,,,,,,,,,,,,,,,,,,,,,,,,,,,,,999,002,2021_Sep_08_1222,joplin1,2021.2.3,60.01264754519757,
_train_cond.csv,0 0 1 0 1 1 0 1 0 0,4,categoryB,j,,,0,6,6,3,1,3,17,2,,,,,,,,,,,,,,,,,,,j,1,0.45621050000045216,,,,,,,,,,,,,,,,,,,,,,,,,,,,,,,,,,,,999,002,2021_Sep_08_1222,joplin1,2021.2.3,60.01264754519757,
_train_cond.csv,0 0 1 1 1 1 1 1 0 0,6,categoryA,f,,,0,6,6,3,1,4,18,13,,,,,,,,,,,,,,,,,,,j,0,0.1711805840004672,,,,,,,,,,,,,,,,,,,,,,,,,,,,,,,,,,,,999,002,2021_Sep_08_1222,joplin1,2021.2.3,60.01264754519757,
_train_cond.csv,0 0 0 1 1 1 1 0 0 0,4,categoryB,j,,,0,6,6,3,1,5,19,3,,,,,,,,,,,,,,,,,,,f,0,0.23322312500022235,,,,,,,,,,,,,,,,,,,,,,,,,,,,,,,,,,,,999,002,2021_Sep_08_1222,joplin1,2021.2.3,60.01264754519757,
_train_cond.csv,1 0 1 1 1 1 1 1 0 1,8,categoryA,f,,,0,6,6,3,1,6,20,8,,,,,,,,,,,,,,,,,,,j,0,0.7341180839994195,,,,,,,,,,,,,,,,,,,,,,,,,,,,,,,,,,,,999,002,2021_Sep_08_1222,joplin1,2021.2.3,60.01264754519757,
_train_cond.csv,1 1 1 0 1 1 0 1 1 1,8,categoryA,f,,,0,6,6,3,1,7,21,11,,,,,,,,,,,,,,,,,,,f,1,0.3893824160004442,,,,,,,,,,,,,,,,,,,,,,,,,,,,,,,,,,,,999,002,2021_Sep_08_1222,joplin1,2021.2.3,60.01264754519757,
_train_cond.csv,0 1 0 0 0 0 0 0 1 0,2,categoryB,j,,,0,6,6,3,1,8,22,1,,,,,,,,,,,,,,,,,,,j,1,1.7870381669999915,,,,,,,,,,,,,,,,,,,,,,,,,,,,,,,,,,,,999,002,2021_Sep_08_1222,joplin1,2021.2.3,60.01264754519757,
_train_cond.csv,0 0 1 0 0 0 0 1 0 0,2,categoryB,j,,,0,6,6,3,1,9,23,5,,,,,,,,,,,,,,,,,,,f,0,0.5768887500016717,,,,,,,,,,,,,,,,,,,,,,,,,,,,,,,,,,,,999,002,2021_Sep_08_1222,joplin1,2021.2.3,60.01264754519757,
_train_cond.csv,1 1 1 0 0 0 0 1 1 1,6,categoryA,f,,,0,6,6,3,1,10,24,10,,,,,,,,,,,,,,,,,,,j,0,0.671097042000838,,,,,,,,,,,,,,,,,,,,,,,,,,,,,,,,,,,,999,002,2021_Sep_08_1222,joplin1,2021.2.3,60.01264754519757,
_train_cond.csv,1 0 0 0 0 0 0 0 0 1,2,categoryB,j,,,0,6,6,3,1,11,25,0,,,,,,,,,,,,,,,,,,,f,0,0.4176671669993084,,,,,,,,,,,,,,,,,,,,,,,,,,,,,,,,,,,,999,002,2021_Sep_08_1222,joplin1,2021.2.3,60.01264754519757,
_train_cond.csv,0 1 1 1 1 1 1 1 1 0,8,categoryA,f,,,0,6,6,3,1,12,26,7,,,,,,,,,,,,,,,,,,,j,0,1.2147761249998439,,,,,,,,,,,,,,,,,,,,,,,,,,,,,,,,,,,,999,002,2021_Sep_08_1222,joplin1,2021.2.3,60.01264754519757,
_train_cond.csv,1 1 0 1 0 0 1 0 1 1,6,categoryA,f,,,0,6,6,3,1,13,27,9,,,,,,,,,,,,,,,,,,,f,1,0.09085187499840686,,,,,,,,,,,,,,,,,,,,,,,,,,,,,,,,,,,,999,002,2021_Sep_08_1222,joplin1,2021.2.3,60.01264754519757,
_train_cond.csv,0 1 1 1 1 1 1 1 1 0,8,categoryA,f,,,0,6,6,3,2,0,28,7,,,,,,,,,,,,,,,,,,,j,0,0.37228070899982413,,,,,,,,,,,,,,,,,,,,,,,,,,,,,,,,,,,,999,002,2021_Sep_08_1222,joplin1,2021.2.3,60.01264754519757,
_train_cond.csv,0 0 1 0 0 0 0 1 0 0,2,categoryB,j,,,0,6,6,3,2,1,29,5,,,,,,,,,,,,,,,,,,,f,0,0.482914416001222,,,,,,,,,,,,,,,,,,,,,,,,,,,,,,,,,,,,999,002,2021_Sep_08_1222,joplin1,2021.2.3,60.01264754519757,
_train_cond.csv,1 1 0 1 1 1 1 0 1 1,8,categoryA,f,,,0,6,6,3,2,2,30,12,,,,,,,,,,,,,,,,,,,f,1,0.19373170899962133,,,,,,,,,,,,,,,,,,,,,,,,,,,,,,,,,,,,999,002,2021_Sep_08_1222,joplin1,2021.2.3,60.01264754519757,
_train_cond.csv,0 0 0 1 0 0 1 0 0 0,2,categoryB,j,,,0,6,6,3,2,3,31,4,,,,,,,,,,,,,,,,,,,f,0,1.6591013340002974,,,,,,,,,,,,,,,,,,,,,,,,,,,,,,,,,,,,999,002,2021_Sep_08_1222,joplin1,2021.2.3,60.01264754519757,
_train_cond.csv,1 0 0 0 0 0 0 0 0 1,2,categoryB,j,,,0,6,6,3,2,4,32,0,,,,,,,,,,,,,,,,,,,f,0,1.2620207909985766,,,,,,,,,,,,,,,,,,,,,,,,,,,,,,,,,,,,999,002,2021_Sep_08_1222,joplin1,2021.2.3,60.01264754519757,
_train_cond.csv,1 1 0 0 0 0 0 0 1 1,4,categoryB,j,,,0,6,6,3,2,5,33,6,,,,,,,,,,,,,,,,,,,f,0,1.0972482079996553,,,,,,,,,,,,,,,,,,,,,,,,,,,,,,,,,,,,999,002,2021_Sep_08_1222,joplin1,2021.2.3,60.01264754519757,
_train_cond.csv,0 0 1 1 1 1 1 1 0 0,6,categoryA,f,,,0,6,6,3,2,6,34,13,,,,,,,,,,,,,,,,,,,j,0,0.4266485839998495,,,,,,,,,,,,,,,,,,,,,,,,,,,,,,,,,,,,999,002,2021_Sep_08_1222,joplin1,2021.2.3,60.01264754519757,
_train_cond.csv,1 1 1 0 1 1 0 1 1 1,8,categoryA,f,,,0,6,6,3,2,7,35,11,,,,,,,,,,,,,,,,,,,f,1,0.08667808300015167,,,,,,,,,,,,,,,,,,,,,,,,,,,,,,,,,,,,999,002,2021_Sep_08_1222,joplin1,2021.2.3,60.01264754519757,
_train_cond.csv,1 0 1 1 1 1 1 1 0 1,8,categoryA,f,,,0,6,6,3,2,8,36,8,,,,,,,,,,,,,,,,,,,f,1,0.384272957999201,,,,,,,,,,,,,,,,,,,,,,,,,,,,,,,,,,,,999,002,2021_Sep_08_1222,joplin1,2021.2.3,60.01264754519757,
_train_cond.csv,1 1 1 0 0 0 0 1 1 1,6,categoryA,f,,,0,6,6,3,2,9,37,10,,,,,,,,,,,,,,,,,,,f,1,0.36675224999999045,,,,,,,,,,,,,,,,,,,,,,,,,,,,,,,,,,,,999,002,2021_Sep_08_1222,joplin1,2021.2.3,60.01264754519757,
_train_cond.csv,0 0 1 0 1 1 0 1 0 0,4,categoryB,j,,,0,6,6,3,2,10,38,2,,,,,,,,,,,,,,,,,,,j,1,0.5815923339996516,,,,,,,,,,,,,,,,,,,,,,,,,,,,,,,,,,,,999,002,2021_Sep_08_1222,joplin1,2021.2.3,60.01264754519757,
_train_cond.csv,0 1 0 0 0 0 0 0 1 0,2,categoryB,j,,,0,6,6,3,2,11,39,1,,,,,,,,,,,,,,,,,,,j,1,0.4030190829998901,,,,,,,,,,,,,,,,,,,,,,,,,,,,,,,,,,,,999,002,2021_Sep_08_1222,joplin1,2021.2.3,60.01264754519757,
_train_cond.csv,1 1 0 1 0 0 1 0 1 1,6,categoryA,f,,,0,6,6,3,2,12,40,9,,,,,,,,,,,,,,,,,,,f,1,0.5047759169992787,,,,,,,,,,,,,,,,,,,,,,,,,,,,,,,,,,,,999,002,2021_Sep_08_1222,joplin1,2021.2.3,60.01264754519757,
_train_cond.csv,0 0 0 1 1 1 1 0 0 0,4,categoryB,j,,,0,6,6,3,2,13,41,3,,,,,,,,,,,,,,,,,,,j,1,0.5611006669987546,,,,,,,,,,,,,,,,,,,,,,,,,,,,,,,,,,,,999,002,2021_Sep_08_1222,joplin1,2021.2.3,60.01264754519757,
_train_cond.csv,,,,,,,0,6,6,3,,,,,,,,,,,,,,,,,,,,,,,,,,space,1.4169719159999659,,,,,,,,,,,,,,,,,,,,,,,,,,,,,,,,,,999,002,2021_Sep_08_1222,joplin1,2021.2.3,60.01264754519757,
_train_cond.csv,1 0 1 1 1 1 1 1 0 1,8,categoryA,f,,,0,7,7,5,0,0,0,8,,,,,,,,,,,,,,,,,,,f,1,0.34845737499927054,,,,,,,,,,,,,,,,,,,,,,,,,,,,,,,,,,,,999,002,2021_Sep_08_1222,joplin1,2021.2.3,60.01264754519757,
_train_cond.csv,1 1 1 0 0 0 0 1 1 1,6,categoryA,f,,,0,7,7,5,0,1,1,10,,,,,,,,,,,,,,,,,,,j,0,0.4677760419999686,,,,,,,,,,,,,,,,,,,,,,,,,,,,,,,,,,,,999,002,2021_Sep_08_1222,joplin1,2021.2.3,60.01264754519757,
_train_cond.csv,0 0 1 0 0 0 0 1 0 0,2,categoryB,j,,,0,7,7,5,0,2,2,5,,,,,,,,,,,,,,,,,,,f,0,0.6048445840006025,,,,,,,,,,,,,,,,,,,,,,,,,,,,,,,,,,,,999,002,2021_Sep_08_1222,joplin1,2021.2.3,60.01264754519757,
_train_cond.csv,0 0 0 1 0 0 1 0 0 0,2,categoryB,j,,,0,7,7,5,0,3,3,4,,,,,,,,,,,,,,,,,,,j,1,0.47373095900002227,,,,,,,,,,,,,,,,,,,,,,,,,,,,,,,,,,,,999,002,2021_Sep_08_1222,joplin1,2021.2.3,60.01264754519757,
_train_cond.csv,0 0 1 0 1 1 0 1 0 0,4,categoryB,j,,,0,7,7,5,0,4,4,2,,,,,,,,,,,,,,,,,,,f,0,0.5876435830014088,,,,,,,,,,,,,,,,,,,,,,,,,,,,,,,,,,,,999,002,2021_Sep_08_1222,joplin1,2021.2.3,60.01264754519757,
_train_cond.csv,1 1 0 1 0 0 1 0 1 1,6,categoryA,f,,,0,7,7,5,0,5,5,9,,,,,,,,,,,,,,,,,,,f,1,0.43175679199885053,,,,,,,,,,,,,,,,,,,,,,,,,,,,,,,,,,,,999,002,2021_Sep_08_1222,joplin1,2021.2.3,60.01264754519757,
_train_cond.csv,1 0 0 0 0 0 0 0 0 1,2,categoryB,j,,,0,7,7,5,0,6,6,0,,,,,,,,,,,,,,,,,,,f,0,0.506962334000491,,,,,,,,,,,,,,,,,,,,,,,,,,,,,,,,,,,,999,002,2021_Sep_08_1222,joplin1,2021.2.3,60.01264754519757,
_train_cond.csv,1 1 0 1 1 1 1 0 1 1,8,categoryA,f,,,0,7,7,5,0,7,7,12,,,,,,,,,,,,,,,,,,,j,0,0.9162766669996927,,,,,,,,,,,,,,,,,,,,,,,,,,,,,,,,,,,,999,002,2021_Sep_08_1222,joplin1,2021.2.3,60.01264754519757,
_train_cond.csv,0 1 1 1 1 1 1 1 1 0,8,categoryA,f,,,0,7,7,5,0,8,8,7,,,,,,,,,,,,,,,,,,,f,1,0.8937264579999464,,,,,,,,,,,,,,,,,,,,,,,,,,,,,,,,,,,,999,002,2021_Sep_08_1222,joplin1,2021.2.3,60.01264754519757,
_train_cond.csv,0 0 1 1 1 1 1 1 0 0,6,categoryA,f,,,0,7,7,5,0,9,9,13,,,,,,,,,,,,,,,,,,,j,0,0.49456587500026217,,,,,,,,,,,,,,,,,,,,,,,,,,,,,,,,,,,,999,002,2021_Sep_08_1222,joplin1,2021.2.3,60.01264754519757,
_train_cond.csv,0 1 0 0 0 0 0 0 1 0,2,categoryB,j,,,0,7,7,5,0,10,10,1,,,,,,,,,,,,,,,,,,,j,1,0.35955133300012676,,,,,,,,,,,,,,,,,,,,,,,,,,,,,,,,,,,,999,002,2021_Sep_08_1222,joplin1,2021.2.3,60.01264754519757,
_train_cond.csv,0 0 0 1 1 1 1 0 0 0,4,categoryB,j,,,0,7,7,5,0,11,11,3,,,,,,,,,,,,,,,,,,,j,1,0.3412995830003638,,,,,,,,,,,,,,,,,,,,,,,,,,,,,,,,,,,,999,002,2021_Sep_08_1222,joplin1,2021.2.3,60.01264754519757,
_train_cond.csv,1 1 1 0 1 1 0 1 1 1,8,categoryA,f,,,0,7,7,5,0,12,12,11,,,,,,,,,,,,,,,,,,,f,1,0.6448861250009941,,,,,,,,,,,,,,,,,,,,,,,,,,,,,,,,,,,,999,002,2021_Sep_08_1222,joplin1,2021.2.3,60.01264754519757,
_train_cond.csv,1 1 0 0 0 0 0 0 1 1,4,categoryB,j,,,0,7,7,5,0,13,13,6,,,,,,,,,,,,,,,,,,,f,0,0.6806785000007949,,,,,,,,,,,,,,,,,,,,,,,,,,,,,,,,,,,,999,002,2021_Sep_08_1222,joplin1,2021.2.3,60.01264754519757,
_train_cond.csv,1 0 0 0 0 0 0 0 0 1,2,categoryB,j,,,0,7,7,5,1,0,14,0,,,,,,,,,,,,,,,,,,,f,0,0.7399209590003011,,,,,,,,,,,,,,,,,,,,,,,,,,,,,,,,,,,,999,002,2021_Sep_08_1222,joplin1,2021.2.3,60.01264754519757,
_train_cond.csv,1 1 0 1 0 0 1 0 1 1,6,categoryA,f,,,0,7,7,5,1,1,15,9,,,,,,,,,,,,,,,,,,,f,1,0.21232262500052457,,,,,,,,,,,,,,,,,,,,,,,,,,,,,,,,,,,,999,002,2021_Sep_08_1222,joplin1,2021.2.3,60.01264754519757,
_train_cond.csv,1 1 1 0 0 0 0 1 1 1,6,categoryA,f,,,0,7,7,5,1,2,16,10,,,,,,,,,,,,,,,,,,,f,1,0.48164395799904014,,,,,,,,,,,,,,,,,,,,,,,,,,,,,,,,,,,,999,002,2021_Sep_08_1222,joplin1,2021.2.3,60.01264754519757,
_train_cond.csv,0 0 1 1 1 1 1 1 0 0,6,categoryA,f,,,0,7,7,5,1,3,17,13,,,,,,,,,,,,,,,,,,,j,0,0.9402204159996472,,,,,,,,,,,,,,,,,,,,,,,,,,,,,,,,,,,,999,002,2021_Sep_08_1222,joplin1,2021.2.3,60.01264754519757,
_train_cond.csv,0 1 0 0 0 0 0 0 1 0,2,categoryB,j,,,0,7,7,5,1,4,18,1,,,,,,,,,,,,,,,,,,,f,0,0.5797599580000679,,,,,,,,,,,,,,,,,,,,,,,,,,,,,,,,,,,,999,002,2021_Sep_08_1222,joplin1,2021.2.3,60.01264754519757,
_train_cond.csv,0 0 0 1 0 0 1 0 0 0,2,categoryB,j,,,0,7,7,5,1,5,19,4,,,,,,,,,,,,,,,,,,,j,1,0.6193090830001893,,,,,,,,,,,,,,,,,,,,,,,,,,,,,,,,,,,,999,002,2021_Sep_08_1222,joplin1,2021.2.3,60.01264754519757,
_train_cond.csv,0 0 1 0 0 0 0 1 0 0,2,categoryB,j,,,0,7,7,5,1,6,20,5,,,,,,,,,,,,,,,,,,,j,1,0.8062405000000581,,,,,,,,,,,,,,,,,,,,,,,,,,,,,,,,,,,,999,002,2021_Sep_08_1222,joplin1,2021.2.3,60.01264754519757,
_train_cond.csv,1 1 0 1 1 1 1 0 1 1,8,categoryA,f,,,0,7,7,5,1,7,21,12,,,,,,,,,,,,,,,,,,,f,1,0.2202987500004383,,,,,,,,,,,,,,,,,,,,,,,,,,,,,,,,,,,,999,002,2021_Sep_08_1222,joplin1,2021.2.3,60.01264754519757,
_train_cond.csv,1 0 1 1 1 1 1 1 0 1,8,categoryA,f,,,0,7,7,5,1,8,22,8,,,,,,,,,,,,,,,,,,,f,1,0.26490637499955483,,,,,,,,,,,,,,,,,,,,,,,,,,,,,,,,,,,,999,002,2021_Sep_08_1222,joplin1,2021.2.3,60.01264754519757,
_train_cond.csv,0 0 0 1 1 1 1 0 0 0,4,categoryB,j,,,0,7,7,5,1,9,23,3,,,,,,,,,,,,,,,,,,,j,1,1.4271446669990837,,,,,,,,,,,,,,,,,,,,,,,,,,,,,,,,,,,,999,002,2021_Sep_08_1222,joplin1,2021.2.3,60.01264754519757,
_train_cond.csv,1 1 1 0 1 1 0 1 1 1,8,categoryA,f,,,0,7,7,5,1,10,24,11,,,,,,,,,,,,,,,,,,,f,1,0.9358929159989202,,,,,,,,,,,,,,,,,,,,,,,,,,,,,,,,,,,,999,002,2021_Sep_08_1222,joplin1,2021.2.3,60.01264754519757,
_train_cond.csv,0 0 1 0 1 1 0 1 0 0,4,categoryB,j,,,0,7,7,5,1,11,25,2,,,,,,,,,,,,,,,,,,,f,0,0.7995122079992143,,,,,,,,,,,,,,,,,,,,,,,,,,,,,,,,,,,,999,002,2021_Sep_08_1222,joplin1,2021.2.3,60.01264754519757,
_train_cond.csv,1 1 0 0 0 0 0 0 1 1,4,categoryB,j,,,0,7,7,5,1,12,26,6,,,,,,,,,,,,,,,,,,,j,1,1.6583061250003084,,,,,,,,,,,,,,,,,,,,,,,,,,,,,,,,,,,,999,002,2021_Sep_08_1222,joplin1,2021.2.3,60.01264754519757,
_train_cond.csv,0 1 1 1 1 1 1 1 1 0,8,categoryA,f,,,0,7,7,5,1,13,27,7,,,,,,,,,,,,,,,,,,,f,1,0.5240627500006667,,,,,,,,,,,,,,,,,,,,,,,,,,,,,,,,,,,,999,002,2021_Sep_08_1222,joplin1,2021.2.3,60.01264754519757,
_train_cond.csv,0 0 1 0 0 0 0 1 0 0,2,categoryB,j,,,0,7,7,5,2,0,28,5,,,,,,,,,,,,,,,,,,,f,0,0.38114916599988646,,,,,,,,,,,,,,,,,,,,,,,,,,,,,,,,,,,,999,002,2021_Sep_08_1222,joplin1,2021.2.3,60.01264754519757,
_train_cond.csv,0 0 0 1 0 0 1 0 0 0,2,categoryB,j,,,0,7,7,5,2,1,29,4,,,,,,,,,,,,,,,,,,,f,0,0.31493383399902086,,,,,,,,,,,,,,,,,,,,,,,,,,,,,,,,,,,,999,002,2021_Sep_08_1222,joplin1,2021.2.3,60.01264754519757,
_train_cond.csv,0 1 1 1 1 1 1 1 1 0,8,categoryA,f,,,0,7,7,5,2,2,30,7,,,,,,,,,,,,,,,,,,,j,0,0.37284900000122434,,,,,,,,,,,,,,,,,,,,,,,,,,,,,,,,,,,,999,002,2021_Sep_08_1222,joplin1,2021.2.3,60.01264754519757,
_train_cond.csv,1 0 1 1 1 1 1 1 0 1,8,categoryA,f,,,0,7,7,5,2,3,31,8,,,,,,,,,,,,,,,,,,,f,1,0.21011533299861185,,,,,,,,,,,,,,,,,,,,,,,,,,,,,,,,,,,,999,002,2021_Sep_08_1222,joplin1,2021.2.3,60.01264754519757,
_train_cond.csv,1 1 1 0 0 0 0 1 1 1,6,categoryA,f,,,0,7,7,5,2,4,32,10,,,,,,,,,,,,,,,,,,,j,0,0.679942332999417,,,,,,,,,,,,,,,,,,,,,,,,,,,,,,,,,,,,999,002,2021_Sep_08_1222,joplin1,2021.2.3,60.01264754519757,
_train_cond.csv,0 0 1 0 1 1 0 1 0 0,4,categoryB,j,,,0,7,7,5,2,5,33,2,,,,,,,,,,,,,,,,,,,j,1,0.29786616599994886,,,,,,,,,,,,,,,,,,,,,,,,,,,,,,,,,,,,999,002,2021_Sep_08_1222,joplin1,2021.2.3,60.01264754519757,
_train_cond.csv,0 0 0 1 1 1 1 0 0 0,4,categoryB,j,,,0,7,7,5,2,6,34,3,,,,,,,,,,,,,,,,,,,j,1,0.8458362499986833,,,,,,,,,,,,,,,,,,,,,,,,,,,,,,,,,,,,999,002,2021_Sep_08_1222,joplin1,2021.2.3,60.01264754519757,
_train_cond.csv,1 1 0 0 0 0 0 0 1 1,4,categoryB,j,,,0,7,7,5,2,7,35,6,,,,,,,,,,,,,,,,,,,f,0,0.9756043329998647,,,,,,,,,,,,,,,,,,,,,,,,,,,,,,,,,,,,999,002,2021_Sep_08_1222,joplin1,2021.2.3,60.01264754519757,
_train_cond.csv,0 1 0 0 0 0 0 0 1 0,2,categoryB,j,,,0,7,7,5,2,8,36,1,,,,,,,,,,,,,,,,,,,j,1,0.03006483399985882,,,,,,,,,,,,,,,,,,,,,,,,,,,,,,,,,,,,999,002,2021_Sep_08_1222,joplin1,2021.2.3,60.01264754519757,
_train_cond.csv,1 1 0 1 1 1 1 0 1 1,8,categoryA,f,,,0,7,7,5,2,9,37,12,,,,,,,,,,,,,,,,,,,f,1,0.1872542090004572,,,,,,,,,,,,,,,,,,,,,,,,,,,,,,,,,,,,999,002,2021_Sep_08_1222,joplin1,2021.2.3,60.01264754519757,
_train_cond.csv,1 0 0 0 0 0 0 0 0 1,2,categoryB,j,,,0,7,7,5,2,10,38,0,,,,,,,,,,,,,,,,,,,f,0,0.5262491249995946,,,,,,,,,,,,,,,,,,,,,,,,,,,,,,,,,,,,999,002,2021_Sep_08_1222,joplin1,2021.2.3,60.01264754519757,
_train_cond.csv,0 0 1 1 1 1 1 1 0 0,6,categoryA,f,,,0,7,7,5,2,11,39,13,,,,,,,,,,,,,,,,,,,j,0,0.9430032079999364,,,,,,,,,,,,,,,,,,,,,,,,,,,,,,,,,,,,999,002,2021_Sep_08_1222,joplin1,2021.2.3,60.01264754519757,
_train_cond.csv,1 1 1 0 1 1 0 1 1 1,8,categoryA,f,,,0,7,7,5,2,12,40,11,,,,,,,,,,,,,,,,,,,f,1,0.5352387499988254,,,,,,,,,,,,,,,,,,,,,,,,,,,,,,,,,,,,999,002,2021_Sep_08_1222,joplin1,2021.2.3,60.01264754519757,
_train_cond.csv,1 1 0 1 0 0 1 0 1 1,6,categoryA,f,,,0,7,7,5,2,13,41,9,,,,,,,,,,,,,,,,,,,f,1,0.4162610000003042,,,,,,,,,,,,,,,,,,,,,,,,,,,,,,,,,,,,999,002,2021_Sep_08_1222,joplin1,2021.2.3,60.01264754519757,
_train_cond.csv,,,,,,,0,7,7,5,,,,,,,,,,,,,,,,,,,,,,,,,,space,1.9580015000010462,,,,,,,,,,,,,,,,,,,,,,,,,,,,,,,,,,999,002,2021_Sep_08_1222,joplin1,2021.2.3,60.01264754519757,
,,,,,,,,,,,,,,,,,,,,,,,,,,,,,,,,,,,,,,q,15.247361957999601,,,,,,,,,,,,,,,,,,,,,,,,,,,,,,,,999,002,2021_Sep_08_1222,joplin1,2021.2.3,60.01264754519757,
,,,,,,,,,,,,,,,,,,,,,,,,,,,,,,,,,,,,,,,,f,13.764237208999475,,,,,,,,,,,,,,,,,,,,,,,,,,,,,,999,002,2021_Sep_08_1222,joplin1,2021.2.3,60.01264754519757,
,,,,,,,,,,,,,,,,,,,,,,,,,,,,,,,,,,,,,,,,,,space,4.365679458000159,,,,,,,,,,,,,,,,,,,,,,,,,,,,999,002,2021_Sep_08_1222,joplin1,2021.2.3,60.01264754519757,
,,,,,,,,,,,,,,,,,,,,,,,,,,,,,,,,,,,,,,,,,,,,space,1.7661753749998752,,,,,,,,,,,,,,,,,,,,,,,,,,999,002,2021_Sep_08_1222,joplin1,2021.2.3,60.01264754519757,
,1 0 1 1 0 0 1 1 1 1,7,categoryA,f,genfile1.csv,0,,,,,,,,,0,0,0,0,0,0,0,45,,,,,,,,,,,,,,,,,,,,,,,,f,1,1.0356258749998233,,,,,,,,,,,,,,,,,,,,,,,999,002,2021_Sep_08_1222,joplin1,2021.2.3,60.01264754519757,
,1 0 0 1 1 0 1 1 1 1,7,categoryA,f,genfile1.csv,0,,,,,,,,,0,0,0,0,0,1,1,41,,,,,,,,,,,,,,,,,,,,,,,,f,1,0.9569520839995675,,,,,,,,,,,,,,,,,,,,,,,999,002,2021_Sep_08_1222,joplin1,2021.2.3,60.01264754519757,
,1 1 0 0 0 0 0 0 1 1,4,categoryB,j,genfile1.csv,1,,,,,,,,,0,0,0,0,0,2,2,8,,,,,,,,,,,,,,,,,,,,,,,,j,1,0.5654335839990381,,,,,,,,,,,,,,,,,,,,,,,999,002,2021_Sep_08_1222,joplin1,2021.2.3,60.01264754519757,
,0 0 0 0 0 0 1 1 0 1,3,categoryB,j,genfile1.csv,0,,,,,,,,,0,0,0,0,0,3,3,30,,,,,,,,,,,,,,,,,,,,,,,,j,1,0.33846954200089385,,,,,,,,,,,,,,,,,,,,,,,999,002,2021_Sep_08_1222,joplin1,2021.2.3,60.01264754519757,
,0 0 0 1 1 1 1 0 0 0,4,categoryB,j,genfile1.csv,1,,,,,,,,,0,0,0,0,0,4,4,5,,,,,,,,,,,,,,,,,,,,,,,,j,1,1.1550991670010262,,,,,,,,,,,,,,,,,,,,,,,999,002,2021_Sep_08_1222,joplin1,2021.2.3,60.01264754519757,
,1 1 1 1 1 1 1 1 0 1,9,categoryA,f,genfile1.csv,0,,,,,,,,,0,0,0,0,0,5,5,55,,,,,,,,,,,,,,,,,,,,,,,,f,1,0.32979537500068545,,,,,,,,,,,,,,,,,,,,,,,999,002,2021_Sep_08_1222,joplin1,2021.2.3,60.01264754519757,
,0 0 0 1 1 0 0 0 0 0,2,categoryB,j,genfile1.csv,0,,,,,,,,,0,0,0,0,0,6,6,24,,,,,,,,,,,,,,,,,,,,,,,,j,1,0.3130665829994541,,,,,,,,,,,,,,,,,,,,,,,999,002,2021_Sep_08_1222,joplin1,2021.2.3,60.01264754519757,
,0 1 1 0 1 1 1 1 1 0,7,categoryA,f,genfile1.csv,0,,,,,,,,,0,0,0,0,0,7,7,42,,,,,,,,,,,,,,,,,,,,,,,,j,0,0.5839830840013747,,,,,,,,,,,,,,,,,,,,,,,999,002,2021_Sep_08_1222,joplin1,2021.2.3,60.01264754519757,
,0 0 1 0 1 0 1 0 0 0,3,categoryB,j,genfile1.csv,0,,,,,,,,,0,0,0,0,0,8,8,27,,,,,,,,,,,,,,,,,,,,,,,,j,1,0.5019218329998694,,,,,,,,,,,,,,,,,,,,,,,999,002,2021_Sep_08_1222,joplin1,2021.2.3,60.01264754519757,
,1 1 1 1 1 0 1 1 1 1,9,categoryA,f,genfile1.csv,0,,,,,,,,,0,0,0,0,0,9,9,54,,,,,,,,,,,,,,,,,,,,,,,,f,1,0.13275379200058524,,,,,,,,,,,,,,,,,,,,,,,999,002,2021_Sep_08_1222,joplin1,2021.2.3,60.01264754519757,
,1 1 1 0 0 0 0 1 1 1,6,categoryA,f,genfile1.csv,1,,,,,,,,,0,0,0,0,0,10,10,12,,,,,,,,,,,,,,,,,,,,,,,,f,1,0.38128512500043144,,,,,,,,,,,,,,,,,,,,,,,999,002,2021_Sep_08_1222,joplin1,2021.2.3,60.01264754519757,
,0 1 1 0 1 0 1 1 1 1,7,categoryA,f,genfile1.csv,0,,,,,,,,,0,0,0,0,0,11,11,44,,,,,,,,,,,,,,,,,,,,,,,,j,0,0.6743649580002966,,,,,,,,,,,,,,,,,,,,,,,999,002,2021_Sep_08_1222,joplin1,2021.2.3,60.01264754519757,
,1 1 0 1 0 0 1 0 1 1,6,categoryA,f,genfile1.csv,1,,,,,,,,,0,0,0,0,0,12,12,11,,,,,,,,,,,,,,,,,,,,,,,,f,1,0.1568317909986945,,,,,,,,,,,,,,,,,,,,,,,999,002,2021_Sep_08_1222,joplin1,2021.2.3,60.01264754519757,
,0 1 1 0 0 0 0 1 0 1,4,categoryB,j,genfile1.csv,0,,,,,,,,,0,0,0,0,0,13,13,34,,,,,,,,,,,,,,,,,,,,,,,,j,1,0.41834416599886026,,,,,,,,,,,,,,,,,,,,,,,999,002,2021_Sep_08_1222,joplin1,2021.2.3,60.01264754519757,
,0 0 1 0 0 0 0 1 0 0,2,categoryB,j,genfile1.csv,1,,,,,,,,,0,0,0,0,0,14,14,7,,,,,,,,,,,,,,,,,,,,,,,,j,1,1.2076395839994802,,,,,,,,,,,,,,,,,,,,,,,999,002,2021_Sep_08_1222,joplin1,2021.2.3,60.01264754519757,
,0 0 0 0 0 0 1 0 0 0,1,categoryB,j,genfile1.csv,0,,,,,,,,,0,0,0,0,0,15,15,20,,,,,,,,,,,,,,,,,,,,,,,,j,1,0.321760083999834,,,,,,,,,,,,,,,,,,,,,,,999,002,2021_Sep_08_1222,joplin1,2021.2.3,60.01264754519757,
,0 0 1 0 1 1 0 1 0 0,4,categoryB,j,genfile1.csv,1,,,,,,,,,0,0,0,0,0,16,16,4,,,,,,,,,,,,,,,,,,,,,,,,j,1,0.41083070800050336,,,,,,,,,,,,,,,,,,,,,,,999,002,2021_Sep_08_1222,joplin1,2021.2.3,60.01264754519757,
,1 1 1 1 0 1 1 1 0 1,8,categoryA,f,genfile1.csv,0,,,,,,,,,0,0,0,0,0,17,17,48,,,,,,,,,,,,,,,,,,,,,,,,f,1,0.8708717499994236,,,,,,,,,,,,,,,,,,,,,,,999,002,2021_Sep_08_1222,joplin1,2021.2.3,60.01264754519757,
,1 1 1 1 1 1 1 0 1 0,8,categoryA,f,genfile1.csv,0,,,,,,,,,0,0,0,0,0,18,18,46,,,,,,,,,,,,,,,,,,,,,,,,j,0,1.0795762500001729,,,,,,,,,,,,,,,,,,,,,,,999,002,2021_Sep_08_1222,joplin1,2021.2.3,60.01264754519757,
,1 0 1 1 1 1 1 1 1 1,9,categoryA,f,genfile1.csv,0,,,,,,,,,0,0,0,0,0,19,19,53,,,,,,,,,,,,,,,,,,,,,,,,f,1,0.36113016700073786,,,,,,,,,,,,,,,,,,,,,,,999,002,2021_Sep_08_1222,joplin1,2021.2.3,60.01264754519757,
,0 0 1 1 0 1 0 1 1 1,6,categoryA,f,genfile1.csv,0,,,,,,,,,0,0,0,0,0,20,20,38,,,,,,,,,,,,,,,,,,,,,,,,j,0,0.42221758399864484,,,,,,,,,,,,,,,,,,,,,,,999,002,2021_Sep_08_1222,joplin1,2021.2.3,60.01264754519757,
,1 0 1 1 1 1 1 1 0 1,8,categoryA,f,genfile1.csv,1,,,,,,,,,0,0,0,0,0,21,21,10,,,,,,,,,,,,,,,,,,,,,,,,f,1,0.6520612499989511,,,,,,,,,,,,,,,,,,,,,,,999,002,2021_Sep_08_1222,joplin1,2021.2.3,60.01264754519757,
,1 1 1 0 1 1 1 1 1 1,9,categoryA,f,genfile1.csv,0,,,,,,,,,0,0,0,0,0,22,22,51,,,,,,,,,,,,,,,,,,,,,,,,f,1,0.6141933750004682,,,,,,,,,,,,,,,,,,,,,,,999,002,2021_Sep_08_1222,joplin1,2021.2.3,60.01264754519757,
,1 0 1 0 1 1 0 1 1 1,7,categoryA,f,genfile1.csv,0,,,,,,,,,0,0,0,0,0,23,23,43,,,,,,,,,,,,,,,,,,,,,,,,f,1,0.4177584580011171,,,,,,,,,,,,,,,,,,,,,,,999,002,2021_Sep_08_1222,joplin1,2021.2.3,60.01264754519757,
,0 1 0 1 0 0 0 1 0 1,4,categoryB,j,genfile1.csv,0,,,,,,,,,0,0,0,0,0,24,24,35,,,,,,,,,,,,,,,,,,,,,,,,j,1,0.196616625000388,,,,,,,,,,,,,,,,,,,,,,,999,002,2021_Sep_08_1222,joplin1,2021.2.3,60.01264754519757,
,1 1 1 0 1 1 0 1 1 1,8,categoryA,f,genfile1.csv,1,,,,,,,,,0,0,0,0,0,25,25,13,,,,,,,,,,,,,,,,,,,,,,,,f,1,0.23682233299950894,,,,,,,,,,,,,,,,,,,,,,,999,002,2021_Sep_08_1222,joplin1,2021.2.3,60.01264754519757,
,1 0 0 0 0 0 0 0 0 0,1,categoryB,j,genfile1.csv,0,,,,,,,,,0,0,0,0,0,26,26,18,,,,,,,,,,,,,,,,,,,,,,,,j,1,0.33313641700078733,,,,,,,,,,,,,,,,,,,,,,,999,002,2021_Sep_08_1222,joplin1,2021.2.3,60.01264754519757,
,0 0 0 0 0 1 1 1 1 0,4,categoryB,j,genfile1.csv,0,,,,,,,,,0,0,0,0,0,27,27,33,,,,,,,,,,,,,,,,,,,,,,,,j,1,0.31638029200075835,,,,,,,,,,,,,,,,,,,,,,,999,002,2021_Sep_08_1222,joplin1,2021.2.3,60.01264754519757,
,1 1 0 0 0 0 0 0 0 0,2,categoryB,j,genfile1.csv,0,,,,,,,,,0,0,0,0,0,28,28,25,,,,,,,,,,,,,,,,,,,,,,,,j,1,0.3554450840001664,,,,,,,,,,,,,,,,,,,,,,,999,002,2021_Sep_08_1222,joplin1,2021.2.3,60.01264754519757,
,1 1 0 1 1 1 1 0 1 1,8,categoryA,f,genfile1.csv,1,,,,,,,,,0,0,0,0,0,29,29,14,,,,,,,,,,,,,,,,,,,,,,,,j,0,0.8435617499999353,,,,,,,,,,,,,,,,,,,,,,,999,002,2021_Sep_08_1222,joplin1,2021.2.3,60.01264754519757,
,1 1 1 1 1 1 0 1 1 1,9,categoryA,f,genfile1.csv,0,,,,,,,,,0,0,0,0,0,30,30,52,,,,,,,,,,,,,,,,,,,,,,,,f,1,0.1821286249996774,,,,,,,,,,,,,,,,,,,,,,,999,002,2021_Sep_08_1222,joplin1,2021.2.3,60.01264754519757,
,1 1 1 1 1 1 1 1 1 1,10,categoryA,f,genfile1.csv,0,,,,,,,,,0,0,0,0,0,31,31,1,,,,,,,,,,,,,,,,,,,,,,,,f,1,0.08363762499902805,,,,,,,,,,,,,,,,,,,,,,,999,002,2021_Sep_08_1222,joplin1,2021.2.3,60.01264754519757,
,0 0 0 1 0 0 1 0 0 0,2,categoryB,j,genfile1.csv,1,,,,,,,,,0,0,0,0,0,32,32,6,,,,,,,,,,,,,,,,,,,,,,,,j,1,0.16451170799882675,,,,,,,,,,,,,,,,,,,,,,,999,002,2021_Sep_08_1222,joplin1,2021.2.3,60.01264754519757,
,0 1 1 1 1 0 0 1 1 0,6,categoryA,f,genfile1.csv,0,,,,,,,,,0,0,0,0,0,33,33,40,,,,,,,,,,,,,,,,,,,,,,,,j,0,0.5067753750008706,,,,,,,,,,,,,,,,,,,,,,,999,002,2021_Sep_08_1222,joplin1,2021.2.3,60.01264754519757,
,0 0 0 0 0 0 0 0 0 0,0,categoryB,j,genfile1.csv,0,,,,,,,,,0,0,0,0,0,34,34,0,,,,,,,,,,,,,,,,,,,,,,,,j,1,0.2971612500004994,,,,,,,,,,,,,,,,,,,,,,,999,002,2021_Sep_08_1222,joplin1,2021.2.3,60.01264754519757,
,1 0 0 0 1 0 0 0 1 0,3,categoryB,j,genfile1.csv,0,,,,,,,,,0,0,0,0,0,35,35,26,,,,,,,,,,,,,,,,,,,,,,,,j,1,0.5460070829994947,,,,,,,,,,,,,,,,,,,,,,,999,002,2021_Sep_08_1222,joplin1,2021.2.3,60.01264754519757,
,0 0 0 1 0 0 0 0 0 0,1,categoryB,j,genfile1.csv,0,,,,,,,,,0,0,0,0,0,36,36,17,,,,,,,,,,,,,,,,,,,,,,,,j,1,0.39178212499973597,,,,,,,,,,,,,,,,,,,,,,,999,002,2021_Sep_08_1222,joplin1,2021.2.3,60.01264754519757,
,1 0 0 1 1 0 0 0 0 0,3,categoryB,j,genfile1.csv,0,,,,,,,,,0,0,0,0,0,37,37,28,,,,,,,,,,,,,,,,,,,,,,,,j,1,0.5075832919992536,,,,,,,,,,,,,,,,,,,,,,,999,002,2021_Sep_08_1222,joplin1,2021.2.3,60.01264754519757,
,0 0 1 1 1 1 1 1 0 0,6,categoryA,f,genfile1.csv,1,,,,,,,,,0,0,0,0,0,38,38,15,,,,,,,,,,,,,,,,,,,,,,,,j,0,0.4928286250014935,,,,,,,,,,,,,,,,,,,,,,,999,002,2021_Sep_08_1222,joplin1,2021.2.3,60.01264754519757,
,0 1 0 1 1 1 1 1 1 1,8,categoryA,f,genfile1.csv,0,,,,,,,,,0,0,0,0,0,39,39,47,,,,,,,,,,,,,,,,,,,,,,,,f,1,1.1493594160001521,,,,,,,,,,,,,,,,,,,,,,,999,002,2021_Sep_08_1222,joplin1,2021.2.3,60.01264754519757,
,0 0 1 0 0 0 0 0 0 0,1,categoryB,j,genfile1.csv,0,,,,,,,,,0,0,0,0,0,40,40,19,,,,,,,,,,,,,,,,,,,,,,,,f,0,1.8351017919994774,,,,,,,,,,,,,,,,,,,,,,,999,002,2021_Sep_08_1222,joplin1,2021.2.3,60.01264754519757,
,0 0 0 0 0 0 0 1 0 0,1,categoryB,j,genfile1.csv,0,,,,,,,,,0,0,0,0,0,41,41,16,,,,,,,,,,,,,,,,,,,,,,,,j,1,0.35811262499919394,,,,,,,,,,,,,,,,,,,,,,,999,002,2021_Sep_08_1222,joplin1,2021.2.3,60.01264754519757,
,1 0 1 0 1 1 0 1 1 0,6,categoryA,f,genfile1.csv,0,,,,,,,,,0,0,0,0,0,42,42,39,,,,,,,,,,,,,,,,,,,,,,,,f,1,1.3556328340000618,,,,,,,,,,,,,,,,,,,,,,,999,002,2021_Sep_08_1222,joplin1,2021.2.3,60.01264754519757,
,1 1 1 0 1 0 0 1 1 0,6,categoryA,f,genfile1.csv,0,,,,,,,,,0,0,0,0,0,43,43,36,,,,,,,,,,,,,,,,,,,,,,,,j,0,0.6636735839983885,,,,,,,,,,,,,,,,,,,,,,,999,002,2021_Sep_08_1222,joplin1,2021.2.3,60.01264754519757,
,0 1 1 1 1 1 1 1 1 0,8,categoryA,f,genfile1.csv,1,,,,,,,,,0,0,0,0,0,44,44,9,,,,,,,,,,,,,,,,,,,,,,,,j,0,0.3075416250012495,,,,,,,,,,,,,,,,,,,,,,,999,002,2021_Sep_08_1222,joplin1,2021.2.3,60.01264754519757,
,1 0 0 0 0 0 0 0 0 1,2,categoryB,j,genfile1.csv,1,,,,,,,,,0,0,0,0,0,45,45,2,,,,,,,,,,,,,,,,,,,,,,,,f,0,0.5548095000012836,,,,,,,,,,,,,,,,,,,,,,,999,002,2021_Sep_08_1222,joplin1,2021.2.3,60.01264754519757,
,1 1 1 1 1 0 1 1 0 1,8,categoryA,f,genfile1.csv,0,,,,,,,,,0,0,0,0,0,46,46,50,,,,,,,,,,,,,,,,,,,,,,,,f,1,0.45495712499905494,,,,,,,,,,,,,,,,,,,,,,,999,002,2021_Sep_08_1222,joplin1,2021.2.3,60.01264754519757,
,0 0 1 0 0 0 0 0 1 0,2,categoryB,j,genfile1.csv,0,,,,,,,,,0,0,0,0,0,47,47,23,,,,,,,,,,,,,,,,,,,,,,,,j,1,0.34580287500102713,,,,,,,,,,,,,,,,,,,,,,,999,002,2021_Sep_08_1222,joplin1,2021.2.3,60.01264754519757,
,1 1 0 0 1 0 0 0 0 0,3,categoryB,j,genfile1.csv,0,,,,,,,,,0,0,0,0,0,48,48,29,,,,,,,,,,,,,,,,,,,,,,,,j,1,0.4722768329993414,,,,,,,,,,,,,,,,,,,,,,,999,002,2021_Sep_08_1222,joplin1,2021.2.3,60.01264754519757,
,0 0 1 0 1 0 0 0 0 0,2,categoryB,j,genfile1.csv,0,,,,,,,,,0,0,0,0,0,49,49,21,,,,,,,,,,,,,,,,,,,,,,,,j,1,0.3274260000016511,,,,,,,,,,,,,,,,,,,,,,,999,002,2021_Sep_08_1222,joplin1,2021.2.3,60.01264754519757,
,0 1 0 0 0 0 0 0 1 0,2,categoryB,j,genfile1.csv,1,,,,,,,,,0,0,0,0,0,50,50,3,,,,,,,,,,,,,,,,,,,,,,,,j,1,0.1920665839988942,,,,,,,,,,,,,,,,,,,,,,,999,002,2021_Sep_08_1222,joplin1,2021.2.3,60.01264754519757,
,0 0 0 0 1 1 0 1 0 1,4,categoryB,j,genfile1.csv,0,,,,,,,,,0,0,0,0,0,51,51,31,,,,,,,,,,,,,,,,,,,,,,,,f,0,0.6608760420003819,,,,,,,,,,,,,,,,,,,,,,,999,002,2021_Sep_08_1222,joplin1,2021.2.3,60.01264754519757,
,0 1 1 0 1 0 0 1 0 0,4,categoryB,j,genfile1.csv,0,,,,,,,,,0,0,0,0,0,52,52,32,,,,,,,,,,,,,,,,,,,,,,,,j,1,1.1341189579998172,,,,,,,,,,,,,,,,,,,,,,,999,002,2021_Sep_08_1222,joplin1,2021.2.3,60.01264754519757,
,0 1 0 0 1 0 0 0 0 0,2,categoryB,j,genfile1.csv,0,,,,,,,,,0,0,0,0,0,53,53,22,,,,,,,,,,,,,,,,,,,,,,,,j,1,0.6053952920010488,,,,,,,,,,,,,,,,,,,,,,,999,002,2021_Sep_08_1222,joplin1,2021.2.3,60.01264754519757,
,1 0 1 0 1 1 1 1 1 1,8,categoryA,f,genfile1.csv,0,,,,,,,,,0,0,0,0,0,54,54,49,,,,,,,,,,,,,,,,,,,,,,,,f,1,0.24771812499966472,,,,,,,,,,,,,,,,,,,,,,,999,002,2021_Sep_08_1222,joplin1,2021.2.3,60.01264754519757,
,1 1 0 1 0 0 0 1 1 1,6,categoryA,f,genfile1.csv,0,,,,,,,,,0,0,0,0,0,55,55,37,,,,,,,,,,,,,,,,,,,,,,,,f,1,0.8083764999992127,,,,,,,,,,,,,,,,,,,,,,,999,002,2021_Sep_08_1222,joplin1,2021.2.3,60.01264754519757,
,,,,,genfile1.csv,,,,,,,,,,0,0,0,0,,,,,,,,,,,,,,,,,,space,1.6227141660001507,,,,,,,,,,,,,,,,,,,,,,,,,,,,,,,,,,999,002,2021_Sep_08_1222,joplin1,2021.2.3,60.01264754519757,
,1 1 1 1 1 1 1 0 1 1,9,categoryA,f,genfile2.csv,0,,,,,,,,,0,1,1,1,0,0,0,55,,,,,,,,,,,,,,,,,,,,,,,,f,1,0.03831966600046144,,,,,,,,,,,,,,,,,,,,,,,999,002,2021_Sep_08_1222,joplin1,2021.2.3,60.01264754519757,
,0 1 1 1 1 1 1 1 0 0,7,categoryA,f,genfile2.csv,0,,,,,,,,,0,1,1,1,0,1,1,45,,,,,,,,,,,,,,,,,,,,,,,,j,0,0.11220779199902609,,,,,,,,,,,,,,,,,,,,,,,999,002,2021_Sep_08_1222,joplin1,2021.2.3,60.01264754519757,
,1 1 1 1 1 1 1 1 1 1,10,categoryA,f,genfile2.csv,0,,,,,,,,,0,1,1,1,0,2,2,1,,,,,,,,,,,,,,,,,,,,,,,,f,1,0.35407095899972774,,,,,,,,,,,,,,,,,,,,,,,999,002,2021_Sep_08_1222,joplin1,2021.2.3,60.01264754519757,
,1 1 0 1 1 1 0 0 0 1,6,categoryA,f,genfile2.csv,0,,,,,,,,,0,1,1,1,0,3,3,36,,,,,,,,,,,,,,,,,,,,,,,,f,1,0.2652396659996157,,,,,,,,,,,,,,,,,,,,,,,999,002,2021_Sep_08_1222,joplin1,2021.2.3,60.01264754519757,
,0 0 0 0 1 0 0 1 0 0,2,categoryB,j,genfile2.csv,0,,,,,,,,,0,1,1,1,0,4,4,24,,,,,,,,,,,,,,,,,,,,,,,,j,1,0.08242483399953926,,,,,,,,,,,,,,,,,,,,,,,999,002,2021_Sep_08_1222,joplin1,2021.2.3,60.01264754519757,
,0 0 0 1 1 1 1 0 0 0,4,categoryB,j,genfile2.csv,1,,,,,,,,,0,1,1,1,0,5,5,5,,,,,,,,,,,,,,,,,,,,,,,,j,1,0.41962154200155055,,,,,,,,,,,,,,,,,,,,,,,999,002,2021_Sep_08_1222,joplin1,2021.2.3,60.01264754519757,
,1 1 0 1 1 1 1 1 1 1,9,categoryA,f,genfile2.csv,0,,,,,,,,,0,1,1,1,0,6,6,54,,,,,,,,,,,,,,,,,,,,,,,,f,1,0.2703674999993382,,,,,,,,,,,,,,,,,,,,,,,999,002,2021_Sep_08_1222,joplin1,2021.2.3,60.01264754519757,
,1 1 0 1 1 1 0 0 1 1,7,categoryA,f,genfile2.csv,0,,,,,,,,,0,1,1,1,0,7,7,41,,,,,,,,,,,,,,,,,,,,,,,,f,1,0.5200550830013526,,,,,,,,,,,,,,,,,,,,,,,999,002,2021_Sep_08_1222,joplin1,2021.2.3,60.01264754519757,
,1 1 1 1 1 1 1 1 1 0,9,categoryA,f,genfile2.csv,0,,,,,,,,,0,1,1,1,0,8,8,51,,,,,,,,,,,,,,,,,,,,,,,,f,1,0.7581455419986014,,,,,,,,,,,,,,,,,,,,,,,999,002,2021_Sep_08_1222,joplin1,2021.2.3,60.01264754519757,
,1 1 1 0 0 0 0 1 1 1,6,categoryA,f,genfile2.csv,1,,,,,,,,,0,1,1,1,0,9,9,12,,,,,,,,,,,,,,,,,,,,,,,,j,0,0.5497570000006817,,,,,,,,,,,,,,,,,,,,,,,999,002,2021_Sep_08_1222,joplin1,2021.2.3,60.01264754519757,
,1 0 0 1 0 1 1 0 0 0,4,categoryB,j,genfile2.csv,0,,,,,,,,,0,1,1,1,0,10,10,33,,,,,,,,,,,,,,,,,,,,,,,,j,1,0.4811208749997604,,,,,,,,,,,,,,,,,,,,,,,999,002,2021_Sep_08_1222,joplin1,2021.2.3,60.01264754519757,
,0 0 0 0 1 0 0 0 0 0,1,categoryB,j,genfile2.csv,0,,,,,,,,,0,1,1,1,0,11,11,18,,,,,,,,,,,,,,,,,,,,,,,,j,1,0.6423861250004848,,,,,,,,,,,,,,,,,,,,,,,999,002,2021_Sep_08_1222,joplin1,2021.2.3,60.01264754519757,
,1 0 0 0 0 0 0 0 0 1,2,categoryB,j,genfile2.csv,1,,,,,,,,,0,1,1,1,0,12,12,2,,,,,,,,,,,,,,,,,,,,,,,,f,0,0.3443890839989763,,,,,,,,,,,,,,,,,,,,,,,999,002,2021_Sep_08_1222,joplin1,2021.2.3,60.01264754519757,
,1 0 1 1 1 1 0 1 1 0,7,categoryA,f,genfile2.csv,0,,,,,,,,,0,1,1,1,0,13,13,43,,,,,,,,,,,,,,,,,,,,,,,,f,1,0.35042445799990674,,,,,,,,,,,,,,,,,,,,,,,999,002,2021_Sep_08_1222,joplin1,2021.2.3,60.01264754519757,
,1 1 1 0 1 1 0 1 1 1,8,categoryA,f,genfile2.csv,1,,,,,,,,,0,1,1,1,0,14,14,13,,,,,,,,,,,,,,,,,,,,,,,,f,1,0.18237458300063736,,,,,,,,,,,,,,,,,,,,,,,999,002,2021_Sep_08_1222,joplin1,2021.2.3,60.01264754519757,
,0 0 1 0 1 1 1 0 1 1,6,categoryA,f,genfile2.csv,0,,,,,,,,,0,1,1,1,0,15,15,37,,,,,,,,,,,,,,,,,,,,,,,,j,0,0.13099200000033306,,,,,,,,,,,,,,,,,,,,,,,999,002,2021_Sep_08_1222,joplin1,2021.2.3,60.01264754519757,
,1 0 1 1 1 1 1 1 0 0,7,categoryA,f,genfile2.csv,0,,,,,,,,,0,1,1,1,0,16,16,42,,,,,,,,,,,,,,,,,,,,,,,,j,0,0.2865929170002346,,,,,,,,,,,,,,,,,,,,,,,999,002,2021_Sep_08_1222,joplin1,2021.2.3,60.01264754519757,
,0 1 1 0 1 1 1 1 1 1,8,categoryA,f,genfile2.csv,0,,,,,,,,,0,1,1,1,0,17,17,48,,,,,,,,,,,,,,,,,,,,,,,,f,1,0.31111712500023714,,,,,,,,,,,,,,,,,,,,,,,999,002,2021_Sep_08_1222,joplin1,2021.2.3,60.01264754519757,
,0 0 0 1 0 0 1 0 0 0,2,categoryB,j,genfile2.csv,1,,,,,,,,,0,1,1,1,0,18,18,6,,,,,,,,,,,,,,,,,,,,,,,,j,1,0.24837641600061033,,,,,,,,,,,,,,,,,,,,,,,999,002,2021_Sep_08_1222,joplin1,2021.2.3,60.01264754519757,
,0 1 1 1 1 1 1 0 1 1,8,categoryA,f,genfile2.csv,0,,,,,,,,,0,1,1,1,0,19,19,49,,,,,,,,,,,,,,,,,,,,,,,,j,0,0.6116492919991288,,,,,,,,,,,,,,,,,,,,,,,999,002,2021_Sep_08_1222,joplin1,2021.2.3,60.01264754519757,
,0 0 0 0 0 0 0 0 1 0,1,categoryB,j,genfile2.csv,0,,,,,,,,,0,1,1,1,0,20,20,16,,,,,,,,,,,,,,,,,,,,,,,,j,1,0.25415262499882374,,,,,,,,,,,,,,,,,,,,,,,999,002,2021_Sep_08_1222,joplin1,2021.2.3,60.01264754519757,
,0 1 0 0 0 0 0 1 1 0,3,categoryB,j,genfile2.csv,0,,,,,,,,,0,1,1,1,0,21,21,29,,,,,,,,,,,,,,,,,,,,,,,,j,1,0.5581782500012196,,,,,,,,,,,,,,,,,,,,,,,999,002,2021_Sep_08_1222,joplin1,2021.2.3,60.01264754519757,
,0 0 0 0 0 0 0 1 1 1,3,categoryB,j,genfile2.csv,0,,,,,,,,,0,1,1,1,0,22,22,26,,,,,,,,,,,,,,,,,,,,,,,,j,1,0.6118315420008003,,,,,,,,,,,,,,,,,,,,,,,999,002,2021_Sep_08_1222,joplin1,2021.2.3,60.01264754519757,
,0 0 1 1 0 0 0 1 0 0,3,categoryB,j,genfile2.csv,0,,,,,,,,,0,1,1,1,0,23,23,28,,,,,,,,,,,,,,,,,,,,,,,,j,1,0.7042402919996675,,,,,,,,,,,,,,,,,,,,,,,999,002,2021_Sep_08_1222,joplin1,2021.2.3,60.01264754519757,
,1 1 0 0 0 0 0 0 1 1,4,categoryB,j,genfile2.csv,1,,,,,,,,,0,1,1,1,0,24,24,8,,,,,,,,,,,,,,,,,,,,,,,,f,0,0.3063227499987988,,,,,,,,,,,,,,,,,,,,,,,999,002,2021_Sep_08_1222,joplin1,2021.2.3,60.01264754519757,
,0 1 0 0 0 1 0 0 0 0,2,categoryB,j,genfile2.csv,0,,,,,,,,,0,1,1,1,0,25,25,21,,,,,,,,,,,,,,,,,,,,,,,,j,1,0.3866445410003507,,,,,,,,,,,,,,,,,,,,,,,999,002,2021_Sep_08_1222,joplin1,2021.2.3,60.01264754519757,
,1 1 1 0 0 0 1 1 1 0,6,categoryA,f,genfile2.csv,0,,,,,,,,,0,1,1,1,0,26,26,38,,,,,,,,,,,,,,,,,,,,,,,,j,0,0.677900791999491,,,,,,,,,,,,,,,,,,,,,,,999,002,2021_Sep_08_1222,joplin1,2021.2.3,60.01264754519757,
,1 1 1 1 0 1 0 1 0 1,7,categoryA,f,genfile2.csv,0,,,,,,,,,0,1,1,1,0,27,27,44,,,,,,,,,,,,,,,,,,,,,,,,f,1,0.270839208000325,,,,,,,,,,,,,,,,,,,,,,,999,002,2021_Sep_08_1222,joplin1,2021.2.3,60.01264754519757,
,0 0 0 0 1 0 0 0 1 0,2,categoryB,j,genfile2.csv,0,,,,,,,,,0,1,1,1,0,28,28,23,,,,,,,,,,,,,,,,,,,,,,,,j,1,0.232658499999161,,,,,,,,,,,,,,,,,,,,,,,999,002,2021_Sep_08_1222,joplin1,2021.2.3,60.01264754519757,
,1 0 0 1 1 1 1 1 1 1,8,categoryA,f,genfile2.csv,0,,,,,,,,,0,1,1,1,0,29,29,47,,,,,,,,,,,,,,,,,,,,,,,,f,1,0.25827749999916705,,,,,,,,,,,,,,,,,,,,,,,999,002,2021_Sep_08_1222,joplin1,2021.2.3,60.01264754519757,
,1 0 0 0 1 0 0 0 0 0,2,categoryB,j,genfile2.csv,0,,,,,,,,,0,1,1,1,0,30,30,22,,,,,,,,,,,,,,,,,,,,,,,,j,1,0.25882020800054306,,,,,,,,,,,,,,,,,,,,,,,999,002,2021_Sep_08_1222,joplin1,2021.2.3,60.01264754519757,
,1 1 0 1 1 1 1 0 1 1,8,categoryA,f,genfile2.csv,1,,,,,,,,,0,1,1,1,0,31,31,14,,,,,,,,,,,,,,,,,,,,,,,,f,1,0.19905720800124982,,,,,,,,,,,,,,,,,,,,,,,999,002,2021_Sep_08_1222,joplin1,2021.2.3,60.01264754519757,
,0 0 1 0 0 0 0 1 0 0,2,categoryB,j,genfile2.csv,1,,,,,,,,,0,1,1,1,0,32,32,7,,,,,,,,,,,,,,,,,,,,,,,,j,1,0.44511420899834775,,,,,,,,,,,,,,,,,,,,,,,999,002,2021_Sep_08_1222,joplin1,2021.2.3,60.01264754519757,
,1 0 0 1 0 0 0 1 0 0,3,categoryB,j,genfile2.csv,0,,,,,,,,,0,1,1,1,0,33,33,30,,,,,,,,,,,,,,,,,,,,,,,,j,1,0.5365602919991943,,,,,,,,,,,,,,,,,,,,,,,999,002,2021_Sep_08_1222,joplin1,2021.2.3,60.01264754519757,
,0 0 1 0 0 1 0 1 0 1,4,categoryB,j,genfile2.csv,0,,,,,,,,,0,1,1,1,0,34,34,35,,,,,,,,,,,,,,,,,,,,,,,,j,1,0.6386667080005282,,,,,,,,,,,,,,,,,,,,,,,999,002,2021_Sep_08_1222,joplin1,2021.2.3,60.01264754519757,
,0 1 0 0 0 0 1 1 0 1,4,categoryB,j,genfile2.csv,0,,,,,,,,,0,1,1,1,0,35,35,31,,,,,,,,,,,,,,,,,,,,,,,,j,1,0.4575570839988359,,,,,,,,,,,,,,,,,,,,,,,999,002,2021_Sep_08_1222,joplin1,2021.2.3,60.01264754519757,
,1 1 1 1 0 0 0 0 1 1,6,categoryA,f,genfile2.csv,0,,,,,,,,,0,1,1,1,0,36,36,39,,,,,,,,,,,,,,,,,,,,,,,,f,1,0.44200233300034597,,,,,,,,,,,,,,,,,,,,,,,999,002,2021_Sep_08_1222,joplin1,2021.2.3,60.01264754519757,
,1 0 1 1 1 1 1 1 0 1,8,categoryA,f,genfile2.csv,1,,,,,,,,,0,1,1,1,0,37,37,10,,,,,,,,,,,,,,,,,,,,,,,,j,0,1.8935456250001153,,,,,,,,,,,,,,,,,,,,,,,999,002,2021_Sep_08_1222,joplin1,2021.2.3,60.01264754519757,
,0 0 0 0 0 0 0 0 0 1,1,categoryB,j,genfile2.csv,0,,,,,,,,,0,1,1,1,0,38,38,19,,,,,,,,,,,,,,,,,,,,,,,,j,1,0.4532841250002093,,,,,,,,,,,,,,,,,,,,,,,999,002,2021_Sep_08_1222,joplin1,2021.2.3,60.01264754519757,
,1 1 1 0 0 1 1 1 1 1,8,categoryA,f,genfile2.csv,0,,,,,,,,,0,1,1,1,0,39,39,50,,,,,,,,,,,,,,,,,,,,,,,,f,1,0.3091824999992241,,,,,,,,,,,,,,,,,,,,,,,999,002,2021_Sep_08_1222,joplin1,2021.2.3,60.01264754519757,
,0 1 0 1 1 1 0 0 0 0,4,categoryB,j,genfile2.csv,0,,,,,,,,,0,1,1,1,0,40,40,34,,,,,,,,,,,,,,,,,,,,,,,,j,1,0.1115317910007434,,,,,,,,,,,,,,,,,,,,,,,999,002,2021_Sep_08_1222,joplin1,2021.2.3,60.01264754519757,
,0 1 0 1 1 1 1 0 1 0,6,categoryA,f,genfile2.csv,0,,,,,,,,,0,1,1,1,0,41,41,40,,,,,,,,,,,,,,,,,,,,,,,,j,0,0.4102258749990142,,,,,,,,,,,,,,,,,,,,,,,999,002,2021_Sep_08_1222,joplin1,2021.2.3,60.01264754519757,
,1 1 0 1 0 0 1 0 1 1,6,categoryA,f,genfile2.csv,1,,,,,,,,,0,1,1,1,0,42,42,11,,,,,,,,,,,,,,,,,,,,,,,,f,1,0.2864696250017005,,,,,,,,,,,,,,,,,,,,,,,999,002,2021_Sep_08_1222,joplin1,2021.2.3,60.01264754519757,
,0 0 0 0 0 0 0 0 0 0,0,categoryB,j,genfile2.csv,0,,,,,,,,,0,1,1,1,0,43,43,0,,,,,,,,,,,,,,,,,,,,,,,,j,1,0.25790737500028627,,,,,,,,,,,,,,,,,,,,,,,999,002,2021_Sep_08_1222,joplin1,2021.2.3,60.01264754519757,
,0 0 0 1 0 0 0 0 1 1,3,categoryB,j,genfile2.csv,0,,,,,,,,,0,1,1,1,0,44,44,27,,,,,,,,,,,,,,,,,,,,,,,,j,1,0.8358382080004958,,,,,,,,,,,,,,,,,,,,,,,999,002,2021_Sep_08_1222,joplin1,2021.2.3,60.01264754519757,
,0 1 1 1 1 1 1 1 1 1,9,categoryA,f,genfile2.csv,0,,,,,,,,,0,1,1,1,0,45,45,53,,,,,,,,,,,,,,,,,,,,,,,,f,1,0.4776255000015226,,,,,,,,,,,,,,,,,,,,,,,999,002,2021_Sep_08_1222,joplin1,2021.2.3,60.01264754519757,
,0 1 0 0 0 0 0 0 0 0,1,categoryB,j,genfile2.csv,0,,,,,,,,,0,1,1,1,0,46,46,20,,,,,,,,,,,,,,,,,,,,,,,,j,1,0.1824311669988674,,,,,,,,,,,,,,,,,,,,,,,999,002,2021_Sep_08_1222,joplin1,2021.2.3,60.01264754519757,
,0 1 1 1 1 1 1 1 1 0,8,categoryA,f,genfile2.csv,1,,,,,,,,,0,1,1,1,0,47,47,9,,,,,,,,,,,,,,,,,,,,,,,,f,1,0.5427639169993199,,,,,,,,,,,,,,,,,,,,,,,999,002,2021_Sep_08_1222,joplin1,2021.2.3,60.01264754519757,
,0 1 1 1 0 1 1 1 1 1,8,categoryA,f,genfile2.csv,0,,,,,,,,,0,1,1,1,0,48,48,46,,,,,,,,,,,,,,,,,,,,,,,,f,1,0.5551806660005241,,,,,,,,,,,,,,,,,,,,,,,999,002,2021_Sep_08_1222,joplin1,2021.2.3,60.01264754519757,
,0 0 0 0 0 1 0 0 0 0,1,categoryB,j,genfile2.csv,0,,,,,,,,,0,1,1,1,0,49,49,17,,,,,,,,,,,,,,,,,,,,,,,,j,1,0.40093541700116475,,,,,,,,,,,,,,,,,,,,,,,999,002,2021_Sep_08_1222,joplin1,2021.2.3,60.01264754519757,
,0 0 1 0 1 1 0 1 0 0,4,categoryB,j,genfile2.csv,1,,,,,,,,,0,1,1,1,0,50,50,4,,,,,,,,,,,,,,,,,,,,,,,,j,1,0.1733877090009628,,,,,,,,,,,,,,,,,,,,,,,999,002,2021_Sep_08_1222,joplin1,2021.2.3,60.01264754519757,
,0 1 0 0 0 0 0 1 0 0,2,categoryB,j,genfile2.csv,0,,,,,,,,,0,1,1,1,0,51,51,25,,,,,,,,,,,,,,,,,,,,,,,,j,1,0.8662555419996352,,,,,,,,,,,,,,,,,,,,,,,999,002,2021_Sep_08_1222,joplin1,2021.2.3,60.01264754519757,
,1 1 1 1 0 1 1 1 1 1,9,categoryA,f,genfile2.csv,0,,,,,,,,,0,1,1,1,0,52,52,52,,,,,,,,,,,,,,,,,,,,,,,,f,1,0.35510791699925903,,,,,,,,,,,,,,,,,,,,,,,999,002,2021_Sep_08_1222,joplin1,2021.2.3,60.01264754519757,
,0 0 1 1 1 1 1 1 0 0,6,categoryA,f,genfile2.csv,1,,,,,,,,,0,1,1,1,0,53,53,15,,,,,,,,,,,,,,,,,,,,,,,,j,0,0.5856520420002198,,,,,,,,,,,,,,,,,,,,,,,999,002,2021_Sep_08_1222,joplin1,2021.2.3,60.01264754519757,
,1 0 0 0 0 1 0 0 1 1,4,categoryB,j,genfile2.csv,0,,,,,,,,,0,1,1,1,0,54,54,32,,,,,,,,,,,,,,,,,,,,,,,,f,0,0.32429887500074983,,,,,,,,,,,,,,,,,,,,,,,999,002,2021_Sep_08_1222,joplin1,2021.2.3,60.01264754519757,
,0 1 0 0 0 0 0 0 1 0,2,categoryB,j,genfile2.csv,1,,,,,,,,,0,1,1,1,0,55,55,3,,,,,,,,,,,,,,,,,,,,,,,,j,1,0.2612622500000725,,,,,,,,,,,,,,,,,,,,,,,999,002,2021_Sep_08_1222,joplin1,2021.2.3,60.01264754519757,
,,,,,genfile2.csv,,,,,,,,,,0,1,1,1,,,,,,,,,,,,,,,,,,space,2.865481249998993,,,,,,,,,,,,,,,,,,,,,,,,,,,,,,,,,,999,002,2021_Sep_08_1222,joplin1,2021.2.3,60.01264754519757,
,,,,,,,,,,,,,,,,,,,,,,,,,,,,,,,,,,,,,,,,,,,,,,,,,space,3.799456332999398,,,,,,,,,,,,,,,,,,,,,999,002,2021_Sep_08_1222,joplin1,2021.2.3,60.01264754519757,
,,,,,,,,,,,,,,,,,,,,,,,,,,,,,,,,,,,,,,,,,,,,,,,,,,,return,14.374750834000224,,,,,,,,,,,,,,,,,,,999,002,2021_Sep_08_1222,joplin1,2021.2.3,60.01264754519757,
,,,,,,,,,,,,,,,,,,,,,,,,,,,,,,,,,,,,,,,,,,,,,,,,,,,,,0.7,radio,0.3,Are you Hispanic/Latino?,0,None,None,yes,2.9721956249995856,,,,,,,,,,999,002,2021_Sep_08_1222,joplin1,2021.2.3,60.01264754519757,
,,,,,,,,,,,,,,,,,,,,,,,,,,,,,,,,,,,,,,,,,,,,,,,,,,,,,0.7,radio,0.3,Are you an American Indian or Alaska Native?,1,None,None,no,5.974835125000027,,,,,,,,,,999,002,2021_Sep_08_1222,joplin1,2021.2.3,60.01264754519757,
,,,,,,,,,,,,,,,,,,,,,,,,,,,,,,,,,,,,,,,,,,,,,,,,,,,,,0.7,radio,0.3,Are you Asian?,2,None,None,None,None,,,,,,,,,,999,002,2021_Sep_08_1222,joplin1,2021.2.3,60.01264754519757,
,,,,,,,,,,,,,,,,,,,,,,,,,,,,,,,,,,,,,,,,,,,,,,,,,,,,,0.7,radio,0.3,Are you Black or African American?,3,None,None,None,None,,,,,,,,,,999,002,2021_Sep_08_1222,joplin1,2021.2.3,60.01264754519757,
,,,,,,,,,,,,,,,,,,,,,,,,,,,,,,,,,,,,,,,,,,,,,,,,,,,,,0.7,radio,0.3,Are you a Native Hawaiian or other Pacific Islander?,4,None,None,None,None,,,,,,,,,,999,002,2021_Sep_08_1222,joplin1,2021.2.3,60.01264754519757,
,,,,,,,,,,,,,,,,,,,,,,,,,,,,,,,,,,,,,,,,,,,,,,,,,,,,,0.7,radio,0.3,Are you White?,5,None,None,None,None,,,,,,,,,,999,002,2021_Sep_08_1222,joplin1,2021.2.3,60.01264754519757,
,,,,,,,,,,,,,,,,,,,,,,,,,,,,,,,,,,,,,,,,,,,,,,,,,,,,,0.85,radio,0.3,"Do you have any history of neurological issues such as stroke, head injury or a neurodegenerative disorder?",6,None,None,None,None,,,,,,,,,,999,002,2021_Sep_08_1222,joplin1,2021.2.3,60.01264754519757,
,,,,,,,,,,,,,,,,,,,,,,,,,,,,,,,,,,,,,,,,,,,,,,,,,,,,,,,,,,,,,,return,7.199633291000282,,,,,,,,999,002,2021_Sep_08_1222,joplin1,2021.2.3,60.01264754519757,
,,,,,,,,,,,,,,,,,,,,,,,,,,,,,,,,,,,,,,,,,,,,,,,,,,,,,,,,,,,,,,,,return,4.58835850000105,,,,,,999,002,2021_Sep_08_1222,joplin1,2021.2.3,60.01264754519757,
,,,,,,,,,,,,,,,,,,,,,,,,,,,,,,,,,,,,,,,,,,,,,,,,,,,,,,,,,,,,,,,,,,female,20,n,7.271278209000229,,999,002,2021_Sep_08_1222,joplin1,2021.2.3,60.01264754519757,
,,,,,,,,,,,,,,,,,,,,,,,,,,,,,,,,,,,,,,,,,,,,,,,,,,,,,,,,,,,,,,,,,,,,,,0,,,,,,,
